participant_id,time_gameplayed_utc,time_sent_utc,detail,condition,trial_number,position_is_top,correct_button,response_window,late_response,response_time
ADMIN-UCSF-BK002,2017-10-16 20:46:55+00:00,2017-10-19 21:30:24+00:00,,Conjunction_12,0,1,0,1000,1,N/A
ADMIN-UCSF-BK002,2017-10-16 20:46:55+00:00,2017-10-19 21:30:24+00:00,,Conjunction_4,0,1,0,1000,1,1039.0700101852417
ADMIN-UCSF-BK002,2017-10-16 20:46:55+00:00,2017-10-19 21:30:24+00:00,,Feature_12,0,1,0,1000,0,718.5419797897339
ADMIN-UCSF-BK002,2017-10-16 20:46:55+00:00,2017-10-19 21:30:24+00:00,,Feature_4,0,0,0,1000,0,536.8840098381042
ADMIN-UCSF-BK002,2017-10-16 20:46:55+00:00,2017-10-19 21:30:24+00:00,,Conjunction_12,1,0,0,1040,1,1174.1859912872314
ADMIN-UCSF-BK002,2017-10-16 20:46:55+00:00,2017-10-19 21:30:24+00:00,,Conjunction_4,1,1,1,1040,0,961.8819952011108
ADMIN-UCSF-BK002,2017-10-16 20:46:55+00:00,2017-10-19 21:30:24+00:00,,Feature_12,1,1,1,1040,0,630.4929852485657
ADMIN-UCSF-BK002,2017-10-16 20:46:55+00:00,2017-10-19 21:30:24+00:00,,Feature_4,1,0,1,1040,0,501.4200210571289
ADMIN-UCSF-BK002,2017-10-16 20:46:55+00:00,2017-10-19 21:30:24+00:00,,Conjunction_12,2,1,1,1080,0,995.3790307044983
ADMIN-UCSF-BK002,2017-10-16 20:46:55+00:00,2017-10-19 21:30:24+00:00,,Conjunction_4,2,1,0,1030,1,1053.7580251693726
ADMIN-UCSF-BK002,2017-10-16 20:46:55+00:00,2017-10-19 21:30:24+00:00,,Feature_12,2,1,1,1030,0,847.5329875946045
ADMIN-UCSF-BK002,2017-10-16 20:46:55+00:00,2017-10-19 21:30:24+00:00,,Feature_4,2,1,1,1030,0,641.2680149078369
ADMIN-UCSF-BK002,2017-10-16 20:46:55+00:00,2017-10-19 21:30:24+00:00,,Conjunction_12,3,0,1,1070,0,643.310010433197
ADMIN-UCSF-BK002,2017-10-16 20:46:55+00:00,2017-10-19 21:30:24+00:00,,Conjunction_4,3,0,1,1070,0,591.284990310669
ADMIN-UCSF-BK002,2017-10-16 20:46:55+00:00,2017-10-19 21:30:24+00:00,,Feature_12,3,0,1,1020,0,770.7609534263611
ADMIN-UCSF-BK002,2017-10-16 20:46:55+00:00,2017-10-19 21:30:24+00:00,,Feature_4,3,1,1,1020,0,770.4820036888123
ADMIN-UCSF-BK002,2017-10-16 20:46:55+00:00,2017-10-19 21:30:24+00:00,,Conjunction_12,4,0,0,1060,1,N/A
ADMIN-UCSF-BK002,2017-10-16 20:46:55+00:00,2017-10-19 21:30:24+00:00,,Conjunction_4,4,1,1,1060,0,753.0040144920349
ADMIN-UCSF-BK002,2017-10-16 20:46:55+00:00,2017-10-19 21:30:24+00:00,,Feature_12,4,0,1,1000,0,734.8589897155762
ADMIN-UCSF-BK002,2017-10-16 20:46:55+00:00,2017-10-19 21:30:24+00:00,,Feature_4,4,0,1,1000,0,552.6180267333984
ADMIN-UCSF-BK002,2017-10-16 20:46:55+00:00,2017-10-19 21:30:24+00:00,,Conjunction_12,5,0,1,1100,0,620.9020018577576
ADMIN-UCSF-BK002,2017-10-16 20:46:55+00:00,2017-10-19 21:30:24+00:00,,Conjunction_4,5,1,0,1050,0,900.65997838974
ADMIN-UCSF-BK002,2017-10-16 20:46:55+00:00,2017-10-19 21:30:24+00:00,,Feature_12,5,1,1,960,0,809.4439506530762
ADMIN-UCSF-BK002,2017-10-16 20:46:55+00:00,2017-10-19 21:30:24+00:00,,Feature_4,5,0,1,960,0,727.7939915657043
ADMIN-UCSF-BK002,2017-10-16 20:46:55+00:00,2017-10-19 21:30:24+00:00,,Conjunction_12,6,1,0,1090,0,980.2029728889465
ADMIN-UCSF-BK002,2017-10-16 20:46:55+00:00,2017-10-19 21:30:24+00:00,,Conjunction_4,6,1,0,1090,1,N/A
ADMIN-UCSF-BK002,2017-10-16 20:46:55+00:00,2017-10-19 21:30:24+00:00,,Feature_12,6,1,1,880,0,811.4950060844421
ADMIN-UCSF-BK002,2017-10-16 20:46:55+00:00,2017-10-19 21:30:24+00:00,,Feature_4,6,1,1,880,0,609.421968460083
ADMIN-UCSF-BK002,2017-10-16 20:46:55+00:00,2017-10-19 21:30:24+00:00,,Conjunction_12,7,0,0,1130,0,602.7159690856934
ADMIN-UCSF-BK002,2017-10-16 20:46:55+00:00,2017-10-19 21:30:24+00:00,,Conjunction_4,7,1,1,1130,0,742.4889802932739
ADMIN-UCSF-BK002,2017-10-16 20:46:55+00:00,2017-10-19 21:30:24+00:00,,Feature_12,7,1,1,720,0,677.4070262908936
ADMIN-UCSF-BK002,2017-10-16 20:46:55+00:00,2017-10-19 21:30:24+00:00,,Feature_4,7,1,0,720,1,794.3069934844971
ADMIN-UCSF-BK002,2017-10-16 20:46:55+00:00,2017-10-19 21:30:24+00:00,,Conjunction_12,8,1,0,1170,0,510.7799768447876
ADMIN-UCSF-BK002,2017-10-16 20:46:55+00:00,2017-10-19 21:30:24+00:00,,Conjunction_4,8,0,0,1120,1,1137.6049518585205
ADMIN-UCSF-BK002,2017-10-16 20:46:55+00:00,2017-10-19 21:30:24+00:00,,Feature_12,8,0,0,400,1,695.0139999389648
ADMIN-UCSF-BK002,2017-10-16 20:46:55+00:00,2017-10-19 21:30:24+00:00,,Feature_4,8,0,1,760,0,533.132016658783
ADMIN-UCSF-BK002,2017-10-16 20:46:55+00:00,2017-10-19 21:30:24+00:00,,Conjunction_12,9,0,0,1250,0,393.43100786209106
ADMIN-UCSF-BK002,2017-10-16 20:46:55+00:00,2017-10-19 21:30:24+00:00,,Conjunction_4,9,0,0,1160,1,1242.6849603652954
ADMIN-UCSF-BK002,2017-10-16 20:46:55+00:00,2017-10-19 21:30:24+00:00,,Feature_12,9,1,0,440,1,652.3230075836182
ADMIN-UCSF-BK002,2017-10-16 20:46:55+00:00,2017-10-19 21:30:24+00:00,,Feature_4,9,1,1,750,0,643.9939737319946
ADMIN-UCSF-BK002,2017-10-16 20:46:55+00:00,2017-10-19 21:30:24+00:00,,Conjunction_12,10,0,0,1410,1,84.60700511932373
ADMIN-UCSF-BK002,2017-10-16 20:46:55+00:00,2017-10-19 21:30:24+00:00,,Conjunction_4,10,0,1,1200,0,740.4999732971191
ADMIN-UCSF-BK002,2017-10-16 20:46:55+00:00,2017-10-19 21:30:24+00:00,,Feature_12,10,0,0,480,1,653.2530188560486
ADMIN-UCSF-BK002,2017-10-16 20:46:55+00:00,2017-10-19 21:30:24+00:00,,Feature_4,10,1,0,740,1,748.7049698829651
ADMIN-UCSF-BK002,2017-10-16 20:46:55+00:00,2017-10-19 21:30:24+00:00,,Conjunction_12,11,0,1,1730,0,425.5250096321106
ADMIN-UCSF-BK002,2017-10-16 20:46:55+00:00,2017-10-19 21:30:24+00:00,,Conjunction_4,11,0,0,1190,0,1071.8169808387756
ADMIN-UCSF-BK002,2017-10-16 20:46:55+00:00,2017-10-19 21:30:24+00:00,,Feature_12,11,1,0,560,0,534.1620445251465
ADMIN-UCSF-BK002,2017-10-16 20:46:55+00:00,2017-10-19 21:30:24+00:00,,Feature_4,11,0,1,780,0,451.5799880027771
ADMIN-UCSF-BK002,2017-10-16 20:46:55+00:00,2017-10-19 21:30:24+00:00,,Conjunction_12,12,1,0,1720,0,1361.059010028839
ADMIN-UCSF-BK002,2017-10-16 20:46:55+00:00,2017-10-19 21:30:24+00:00,,Conjunction_4,12,0,1,1230,0,785.927951335907
ADMIN-UCSF-BK002,2017-10-16 20:46:55+00:00,2017-10-19 21:30:24+00:00,,Feature_12,12,0,0,720,1,751.865029335022
ADMIN-UCSF-BK002,2017-10-16 20:46:55+00:00,2017-10-19 21:30:24+00:00,,Feature_4,12,0,0,770,0,392.2150135040283
ADMIN-UCSF-BK002,2017-10-16 20:46:55+00:00,2017-10-19 21:30:24+00:00,,Conjunction_12,13,0,1,1760,0,1320.6190466880798
ADMIN-UCSF-BK002,2017-10-16 20:46:55+00:00,2017-10-19 21:30:24+00:00,,Conjunction_4,13,1,0,1220,0,1149.4620442390442
ADMIN-UCSF-BK002,2017-10-16 20:46:55+00:00,2017-10-19 21:30:24+00:00,,Feature_12,13,0,1,1040,0,760.6149911880493
ADMIN-UCSF-BK002,2017-10-16 20:46:55+00:00,2017-10-19 21:30:24+00:00,,Feature_4,13,0,1,810,0,442.3680305480957
ADMIN-UCSF-BK002,2017-10-16 20:46:55+00:00,2017-10-19 21:30:24+00:00,,Conjunction_12,14,1,0,1750,1,N/A
ADMIN-UCSF-BK002,2017-10-16 20:46:55+00:00,2017-10-19 21:30:24+00:00,,Conjunction_4,14,0,1,1260,0,916.3990020751953
ADMIN-UCSF-BK002,2017-10-16 20:46:55+00:00,2017-10-19 21:30:24+00:00,,Feature_12,14,1,0,1030,0,736.6489768028259
ADMIN-UCSF-BK002,2017-10-16 20:46:55+00:00,2017-10-19 21:30:24+00:00,,Feature_4,14,1,0,800,0,530.8219790458679
ADMIN-UCSF-BK002,2017-10-16 20:46:55+00:00,2017-10-19 21:30:24+00:00,,Conjunction_12,15,1,1,1790,0,1200.8150219917297
ADMIN-UCSF-BK002,2017-10-16 20:46:55+00:00,2017-10-19 21:30:24+00:00,,Conjunction_4,15,1,1,1250,0,980.4650545120239
ADMIN-UCSF-BK002,2017-10-16 20:46:55+00:00,2017-10-19 21:30:24+00:00,,Feature_12,15,0,1,1070,0,836.3639712333679
ADMIN-UCSF-BK002,2017-10-16 20:46:55+00:00,2017-10-19 21:30:24+00:00,,Feature_4,15,1,1,840,0,467.818021774292
ADMIN-UCSF-BK002,2017-10-16 20:46:55+00:00,2017-10-19 21:30:24+00:00,,Conjunction_12,16,1,0,1780,1,N/A
ADMIN-UCSF-BK002,2017-10-16 20:46:55+00:00,2017-10-19 21:30:24+00:00,,Conjunction_4,16,1,0,1240,0,1041.0619974136353
ADMIN-UCSF-BK002,2017-10-16 20:46:55+00:00,2017-10-19 21:30:24+00:00,,Feature_12,16,1,1,1060,0,591.8670296669006
ADMIN-UCSF-BK002,2017-10-16 20:46:55+00:00,2017-10-19 21:30:24+00:00,,Feature_4,16,1,0,830,0,467.2499895095825
ADMIN-UCSF-BK002,2017-10-16 20:46:55+00:00,2017-10-19 21:30:24+00:00,,Conjunction_12,17,1,1,1820,0,1395.792007446289
ADMIN-UCSF-BK002,2017-10-16 20:46:55+00:00,2017-10-19 21:30:24+00:00,,Conjunction_4,17,1,1,1280,0,1131.397008895874
ADMIN-UCSF-BK002,2017-10-16 20:46:55+00:00,2017-10-19 21:30:24+00:00,,Feature_12,17,0,1,1050,0,695.1619982719421
ADMIN-UCSF-BK002,2017-10-16 20:46:55+00:00,2017-10-19 21:30:24+00:00,,Feature_4,17,1,1,870,0,768.7100172042847
ADMIN-UCSF-BK002,2017-10-16 20:46:55+00:00,2017-10-19 21:30:24+00:00,,Conjunction_12,18,0,1,1810,0,1174.7429966926575
ADMIN-UCSF-BK002,2017-10-16 20:46:55+00:00,2017-10-19 21:30:24+00:00,,Conjunction_4,18,1,1,1270,0,894.2970037460327
ADMIN-UCSF-BK002,2017-10-16 20:46:55+00:00,2017-10-19 21:30:24+00:00,,Feature_12,18,0,0,1030,0,666.2760376930237
ADMIN-UCSF-BK002,2017-10-16 20:46:55+00:00,2017-10-19 21:30:24+00:00,,Feature_4,18,1,1,860,0,596.8759655952454
ADMIN-UCSF-BK002,2017-10-16 20:46:55+00:00,2017-10-19 21:30:24+00:00,,Conjunction_12,19,0,1,1800,0,1751.4449954032898
ADMIN-UCSF-BK002,2017-10-16 20:46:55+00:00,2017-10-19 21:30:24+00:00,,Conjunction_4,19,0,1,1260,0,1146.1119651794434
ADMIN-UCSF-BK002,2017-10-16 20:46:55+00:00,2017-10-19 21:30:24+00:00,,Feature_12,19,1,1,1070,0,785.7360243797302
ADMIN-UCSF-BK002,2017-10-16 20:46:55+00:00,2017-10-19 21:30:24+00:00,,Feature_4,19,0,1,850,0,617.3139810562134
ADMIN-UCSF-BK002,2017-10-16 20:46:55+00:00,2017-10-19 21:30:24+00:00,,Conjunction_12,20,1,0,1780,0,1662.5369787216187
ADMIN-UCSF-BK002,2017-10-16 20:46:55+00:00,2017-10-19 21:30:24+00:00,,Conjunction_4,20,0,0,1240,0,1205.640971660614
ADMIN-UCSF-BK002,2017-10-16 20:46:55+00:00,2017-10-19 21:30:24+00:00,,Feature_12,20,0,1,1060,0,601.809024810791
ADMIN-UCSF-BK002,2017-10-16 20:46:55+00:00,2017-10-19 21:30:24+00:00,,Feature_4,20,1,1,830,0,416.94605350494385
ADMIN-UCSF-BK002,2017-10-16 20:46:55+00:00,2017-10-19 21:30:24+00:00,,Conjunction_12,21,1,0,1820,0,N/A
ADMIN-UCSF-BK002,2017-10-16 20:46:55+00:00,2017-10-19 21:30:24+00:00,,Conjunction_4,21,0,1,1280,0,801.5689849853516
ADMIN-UCSF-BK002,2017-10-16 20:46:55+00:00,2017-10-19 21:30:24+00:00,,Feature_12,21,0,0,1050,1,1337.81898021698
ADMIN-UCSF-BK002,2017-10-16 20:46:55+00:00,2017-10-19 21:30:24+00:00,,Feature_4,21,0,1,790,0,551.6039729118347
ADMIN-UCSF-BK002,2017-10-16 20:46:55+00:00,2017-10-19 21:30:24+00:00,,Conjunction_12,22,1,1,1860,0,1096.5259671211243
ADMIN-UCSF-BK002,2017-10-16 20:46:55+00:00,2017-10-19 21:30:24+00:00,,Conjunction_4,22,0,1,1270,0,1154.798984527588
ADMIN-UCSF-BK002,2017-10-16 20:46:55+00:00,2017-10-19 21:30:24+00:00,,Feature_12,22,1,1,1090,0,498.72100353240967
ADMIN-UCSF-BK002,2017-10-16 20:46:55+00:00,2017-10-19 21:30:24+00:00,,Feature_4,22,0,0,710,0,454.96803522109985
ADMIN-UCSF-BK002,2017-10-16 20:46:55+00:00,2017-10-19 21:30:24+00:00,,Conjunction_12,23,0,1,1850,0,978.2229661941528
ADMIN-UCSF-BK002,2017-10-16 20:46:55+00:00,2017-10-19 21:30:24+00:00,,Conjunction_4,23,1,1,1260,0,1039.3289923667908
ADMIN-UCSF-BK002,2017-10-16 20:46:55+00:00,2017-10-19 21:30:24+00:00,,Feature_12,23,0,1,1080,0,616.3220405578613
ADMIN-UCSF-BK002,2017-10-16 20:46:55+00:00,2017-10-19 21:30:24+00:00,,Feature_4,23,0,1,750,0,624.6269941329956
ADMIN-UCSF-BK002,2017-10-16 20:46:55+00:00,2017-10-19 21:30:24+00:00,,Conjunction_12,24,1,1,1840,0,1054.960012435913
ADMIN-UCSF-BK002,2017-10-16 20:46:55+00:00,2017-10-19 21:30:24+00:00,,Conjunction_4,24,0,1,1240,0,930.1019906997681
ADMIN-UCSF-BK002,2017-10-16 20:46:55+00:00,2017-10-19 21:30:24+00:00,,Feature_12,24,1,1,1070,0,632.0149898529053
ADMIN-UCSF-BK002,2017-10-16 20:46:55+00:00,2017-10-19 21:30:24+00:00,,Feature_4,24,1,1,740,0,562.3109936714172
ADMIN-UCSF-BK004,2017-10-16 21:08:48+00:00,2017-10-19 21:30:24+00:00,,Conjunction_12,0,0,0,1000,1,1375.1190304756165
ADMIN-UCSF-BK004,2017-10-16 21:08:48+00:00,2017-10-19 21:30:24+00:00,,Conjunction_4,0,0,0,1000,1,1483.851969242096
ADMIN-UCSF-BK004,2017-10-16 21:08:48+00:00,2017-10-19 21:30:24+00:00,,Feature_12,0,0,1,1000,0,753.1570196151733
ADMIN-UCSF-BK004,2017-10-16 21:08:48+00:00,2017-10-19 21:30:24+00:00,,Feature_4,0,0,1,1000,0,844.1870212554932
ADMIN-UCSF-BK004,2017-10-16 21:08:48+00:00,2017-10-19 21:30:24+00:00,,Conjunction_12,1,1,0,1040,1,1110.2830171585083
ADMIN-UCSF-BK004,2017-10-16 21:08:48+00:00,2017-10-19 21:30:24+00:00,,Conjunction_4,1,1,0,1040,1,1129.751980304718
ADMIN-UCSF-BK004,2017-10-16 21:08:48+00:00,2017-10-19 21:30:24+00:00,,Feature_12,1,1,1,990,0,646.2079882621765
ADMIN-UCSF-BK004,2017-10-16 21:08:48+00:00,2017-10-19 21:30:24+00:00,,Feature_4,1,1,1,990,0,837.4029994010925
ADMIN-UCSF-BK004,2017-10-16 21:08:48+00:00,2017-10-19 21:30:24+00:00,,Conjunction_12,2,1,0,1080,1,1097.216010093689
ADMIN-UCSF-BK004,2017-10-16 21:08:48+00:00,2017-10-19 21:30:24+00:00,,Conjunction_4,2,1,1,1080,0,903.2970070838928
ADMIN-UCSF-BK004,2017-10-16 21:08:48+00:00,2017-10-19 21:30:24+00:00,,Feature_12,2,0,0,980,1,1003.0419826507568
ADMIN-UCSF-BK004,2017-10-16 21:08:48+00:00,2017-10-19 21:30:24+00:00,,Feature_4,2,0,1,980,0,558.8169693946838
ADMIN-UCSF-BK004,2017-10-16 21:08:48+00:00,2017-10-19 21:30:24+00:00,,Conjunction_12,3,0,0,1160,0,1060.492992401123
ADMIN-UCSF-BK004,2017-10-16 21:08:48+00:00,2017-10-19 21:30:24+00:00,,Conjunction_4,3,0,0,1070,1,1311.6120100021362
ADMIN-UCSF-BK004,2017-10-16 21:08:48+00:00,2017-10-19 21:30:24+00:00,,Feature_12,3,0,1,1020,0,789.1460061073303
ADMIN-UCSF-BK004,2017-10-16 21:08:48+00:00,2017-10-19 21:30:24+00:00,,Feature_4,3,1,1,960,0,735.5639934539795
ADMIN-UCSF-BK004,2017-10-16 21:08:48+00:00,2017-10-19 21:30:24+00:00,,Conjunction_12,4,0,0,1320,1,1392.2839760780334
ADMIN-UCSF-BK004,2017-10-16 21:08:48+00:00,2017-10-19 21:30:24+00:00,,Conjunction_4,4,1,1,1110,0,489.4840121269226
ADMIN-UCSF-BK004,2017-10-16 21:08:48+00:00,2017-10-19 21:30:24+00:00,,Feature_12,4,1,1,1010,0,475.8930206298828
ADMIN-UCSF-BK004,2017-10-16 21:08:48+00:00,2017-10-19 21:30:24+00:00,,Feature_4,4,0,1,920,0,798.130989074707
ADMIN-UCSF-BK004,2017-10-16 21:08:48+00:00,2017-10-19 21:30:24+00:00,,Conjunction_12,5,1,0,1640,0,N/A
ADMIN-UCSF-BK004,2017-10-16 21:08:48+00:00,2017-10-19 21:30:24+00:00,,Conjunction_4,5,1,0,1100,0,595.274031162262
ADMIN-UCSF-BK004,2017-10-16 21:08:48+00:00,2017-10-19 21:30:24+00:00,,Feature_12,5,0,1,1000,0,370.635986328125
ADMIN-UCSF-BK004,2017-10-16 21:08:48+00:00,2017-10-19 21:30:24+00:00,,Feature_4,5,1,1,840,0,715.3440117835999
ADMIN-UCSF-BK004,2017-10-16 21:08:48+00:00,2017-10-19 21:30:24+00:00,,Conjunction_12,6,1,1,2280,0,1205.3769826889038
ADMIN-UCSF-BK004,2017-10-16 21:08:48+00:00,2017-10-19 21:30:24+00:00,,Conjunction_4,6,1,1,1140,0,623.0270266532898
ADMIN-UCSF-BK004,2017-10-16 21:08:48+00:00,2017-10-19 21:30:24+00:00,,Feature_12,6,1,1,980,0,447.5899934768677
ADMIN-UCSF-BK004,2017-10-16 21:08:48+00:00,2017-10-19 21:30:24+00:00,,Feature_4,6,1,0,680,0,599.9360084533691
ADMIN-UCSF-BK004,2017-10-16 21:08:48+00:00,2017-10-19 21:30:24+00:00,,Conjunction_12,7,1,0,2270,1,N/A
ADMIN-UCSF-BK004,2017-10-16 21:08:48+00:00,2017-10-19 21:30:24+00:00,,Conjunction_4,7,0,1,1130,0,989.8509979248047
ADMIN-UCSF-BK004,2017-10-16 21:08:48+00:00,2017-10-19 21:30:24+00:00,,Feature_12,7,1,0,940,0,315.75697660446167
ADMIN-UCSF-BK004,2017-10-16 21:08:48+00:00,2017-10-19 21:30:24+00:00,,Feature_4,7,0,0,720,1,743.1510090827942
ADMIN-UCSF-BK004,2017-10-16 21:08:48+00:00,2017-10-19 21:30:24+00:00,,Conjunction_12,8,0,1,2310,0,1312.7689957618713
ADMIN-UCSF-BK004,2017-10-16 21:08:48+00:00,2017-10-19 21:30:24+00:00,,Conjunction_4,8,1,1,1120,0,951.5209794044495
ADMIN-UCSF-BK004,2017-10-16 21:08:48+00:00,2017-10-19 21:30:24+00:00,,Feature_12,8,1,1,980,0,393.49597692489624
ADMIN-UCSF-BK004,2017-10-16 21:08:48+00:00,2017-10-19 21:30:24+00:00,,Feature_4,8,0,1,760,0,684.2769980430603
ADMIN-UCSF-BK004,2017-10-16 21:08:48+00:00,2017-10-19 21:30:24+00:00,,Conjunction_12,9,1,1,2300,0,973.9400148391724
ADMIN-UCSF-BK004,2017-10-16 21:08:48+00:00,2017-10-19 21:30:24+00:00,,Conjunction_4,9,0,1,1100,0,882.739007472992
ADMIN-UCSF-BK004,2017-10-16 21:08:48+00:00,2017-10-19 21:30:24+00:00,,Feature_12,9,1,1,970,0,735.1660132408142
ADMIN-UCSF-BK004,2017-10-16 21:08:48+00:00,2017-10-19 21:30:24+00:00,,Feature_4,9,0,0,750,1,793.0650115013123
ADMIN-UCSF-BK004,2017-10-16 21:08:48+00:00,2017-10-19 21:30:24+00:00,,Conjunction_12,10,0,1,2290,0,1008.059024810791
ADMIN-UCSF-BK004,2017-10-16 21:08:48+00:00,2017-10-19 21:30:24+00:00,,Conjunction_4,10,0,0,1060,0,1029.397964477539
ADMIN-UCSF-BK004,2017-10-16 21:08:48+00:00,2017-10-19 21:30:24+00:00,,Feature_12,10,1,1,960,0,620.5019950866699
ADMIN-UCSF-BK004,2017-10-16 21:08:48+00:00,2017-10-19 21:30:24+00:00,,Feature_4,10,1,1,790,0,608.6139678955078
ADMIN-UCSF-BK004,2017-10-16 21:08:48+00:00,2017-10-19 21:30:24+00:00,,Conjunction_12,11,0,0,2270,0,840.1989936828613
ADMIN-UCSF-BK004,2017-10-16 21:08:48+00:00,2017-10-19 21:30:24+00:00,,Conjunction_4,11,0,1,1100,0,987.7749681472778
ADMIN-UCSF-BK004,2017-10-16 21:08:48+00:00,2017-10-19 21:30:24+00:00,,Feature_12,11,0,0,940,0,544.376015663147
ADMIN-UCSF-BK004,2017-10-16 21:08:48+00:00,2017-10-19 21:30:24+00:00,,Feature_4,11,1,0,780,0,434.42195653915405
ADMIN-UCSF-BK004,2017-10-16 21:08:48+00:00,2017-10-19 21:30:24+00:00,,Conjunction_12,12,0,1,2310,0,1677.365005016327
ADMIN-UCSF-BK004,2017-10-16 21:08:48+00:00,2017-10-19 21:30:24+00:00,,Conjunction_4,12,0,1,1090,0,989.8989796638489
ADMIN-UCSF-BK004,2017-10-16 21:08:48+00:00,2017-10-19 21:30:24+00:00,,Feature_12,12,1,1,980,0,381.72096014022827
ADMIN-UCSF-BK004,2017-10-16 21:08:48+00:00,2017-10-19 21:30:24+00:00,,Feature_4,12,1,1,820,0,684.1080188751221
ADMIN-UCSF-BK004,2017-10-16 21:08:48+00:00,2017-10-19 21:30:24+00:00,,Conjunction_12,13,0,1,2300,0,1304.8030138015747
ADMIN-UCSF-BK004,2017-10-16 21:08:48+00:00,2017-10-19 21:30:24+00:00,,Conjunction_4,13,0,1,1080,0,927.1720051765442
ADMIN-UCSF-BK004,2017-10-16 21:08:48+00:00,2017-10-19 21:30:24+00:00,,Feature_12,13,0,1,970,0,511.54303550720215
ADMIN-UCSF-BK004,2017-10-16 21:08:48+00:00,2017-10-19 21:30:24+00:00,,Feature_4,13,0,1,810,0,473.81800413131714
ADMIN-UCSF-BK004,2017-10-16 21:08:48+00:00,2017-10-19 21:30:24+00:00,,Conjunction_12,14,1,1,2290,0,1289.023995399475
ADMIN-UCSF-BK004,2017-10-16 21:08:48+00:00,2017-10-19 21:30:24+00:00,,Conjunction_4,14,1,0,1060,1,1283.3009958267212
ADMIN-UCSF-BK004,2017-10-16 21:08:48+00:00,2017-10-19 21:30:24+00:00,,Feature_12,14,1,1,960,0,418.9950227737427
ADMIN-UCSF-BK004,2017-10-16 21:08:48+00:00,2017-10-19 21:30:24+00:00,,Feature_4,14,0,0,800,0,426.1320233345032
ADMIN-UCSF-BK004,2017-10-16 21:08:48+00:00,2017-10-19 21:30:24+00:00,,Conjunction_12,15,0,1,2270,0,1193.9079761505127
ADMIN-UCSF-BK004,2017-10-16 21:08:48+00:00,2017-10-19 21:30:24+00:00,,Conjunction_4,15,1,1,1100,0,825.3070116043091
ADMIN-UCSF-BK004,2017-10-16 21:08:48+00:00,2017-10-19 21:30:24+00:00,,Feature_12,15,1,0,940,0,469.1600203514099
ADMIN-UCSF-BK004,2017-10-16 21:08:48+00:00,2017-10-19 21:30:24+00:00,,Feature_4,15,0,1,840,0,493.5449957847595
ADMIN-UCSF-BK004,2017-10-16 21:08:48+00:00,2017-10-19 21:30:24+00:00,,Conjunction_12,16,0,1,2230,0,1561.320960521698
ADMIN-UCSF-BK004,2017-10-16 21:08:48+00:00,2017-10-19 21:30:24+00:00,,Conjunction_4,16,1,1,1090,0,713.4730219841003
ADMIN-UCSF-BK004,2017-10-16 21:08:48+00:00,2017-10-19 21:30:24+00:00,,Feature_12,16,0,1,980,0,875.5789995193481
ADMIN-UCSF-BK004,2017-10-16 21:08:48+00:00,2017-10-19 21:30:24+00:00,,Feature_4,16,0,0,830,0,532.8510403633118
ADMIN-UCSF-BK004,2017-10-16 21:08:48+00:00,2017-10-19 21:30:24+00:00,,Conjunction_12,17,0,1,2150,0,976.0519862174988
ADMIN-UCSF-BK004,2017-10-16 21:08:48+00:00,2017-10-19 21:30:24+00:00,,Conjunction_4,17,1,1,1080,0,862.3539805412292
ADMIN-UCSF-BK004,2017-10-16 21:08:48+00:00,2017-10-19 21:30:24+00:00,,Feature_12,17,0,1,970,0,770.1500058174133
ADMIN-UCSF-BK004,2017-10-16 21:08:48+00:00,2017-10-19 21:30:24+00:00,,Feature_4,17,1,0,870,0,616.6759729385376
ADMIN-UCSF-BK004,2017-10-16 21:08:48+00:00,2017-10-19 21:30:24+00:00,,Conjunction_12,18,1,0,1990,0,1972.7439880371094
ADMIN-UCSF-BK004,2017-10-16 21:08:48+00:00,2017-10-19 21:30:24+00:00,,Conjunction_4,18,1,1,1060,0,943.4499740600586
ADMIN-UCSF-BK004,2017-10-16 21:08:48+00:00,2017-10-19 21:30:24+00:00,,Feature_12,18,0,1,960,0,681.7839741706848
ADMIN-UCSF-BK004,2017-10-16 21:08:48+00:00,2017-10-19 21:30:24+00:00,,Feature_4,18,1,1,910,0,688.5249614715576
ADMIN-UCSF-BK004,2017-10-16 21:08:48+00:00,2017-10-19 21:30:24+00:00,,Conjunction_12,19,1,1,2030,0,955.0069570541382
ADMIN-UCSF-BK004,2017-10-16 21:08:48+00:00,2017-10-19 21:30:24+00:00,,Conjunction_4,19,0,0,1020,0,609.1409921646118
ADMIN-UCSF-BK004,2017-10-16 21:08:48+00:00,2017-10-19 21:30:24+00:00,,Feature_12,19,1,1,940,0,777.1199941635132
ADMIN-UCSF-BK004,2017-10-16 21:08:48+00:00,2017-10-19 21:30:24+00:00,,Feature_4,19,1,1,900,0,604.9759984016418
ADMIN-UCSF-BK004,2017-10-16 21:08:48+00:00,2017-10-19 21:30:24+00:00,,Conjunction_12,20,1,1,2020,0,1261.6900205612183
ADMIN-UCSF-BK004,2017-10-16 21:08:48+00:00,2017-10-19 21:30:24+00:00,,Conjunction_4,20,0,0,1060,0,736.8940114974976
ADMIN-UCSF-BK004,2017-10-16 21:08:48+00:00,2017-10-19 21:30:24+00:00,,Feature_12,20,1,1,900,0,786.2920165061951
ADMIN-UCSF-BK004,2017-10-16 21:08:48+00:00,2017-10-19 21:30:24+00:00,,Feature_4,20,1,0,890,1,947.6149678230286
ADMIN-UCSF-BK004,2017-10-16 21:08:48+00:00,2017-10-19 21:30:24+00:00,,Conjunction_12,21,1,0,2010,1,N/A
ADMIN-UCSF-BK004,2017-10-16 21:08:48+00:00,2017-10-19 21:30:24+00:00,,Conjunction_4,21,1,0,1100,0,975.3810167312622
ADMIN-UCSF-BK004,2017-10-16 21:08:48+00:00,2017-10-19 21:30:24+00:00,,Feature_12,21,1,0,820,1,825.5230188369751
ADMIN-UCSF-BK004,2017-10-16 21:08:48+00:00,2017-10-19 21:30:24+00:00,,Feature_4,21,0,1,930,0,799.580991268158
ADMIN-UCSF-BK004,2017-10-16 21:08:48+00:00,2017-10-19 21:30:24+00:00,,Conjunction_12,22,0,1,2050,0,1673.3779907226562
ADMIN-UCSF-BK004,2017-10-16 21:08:48+00:00,2017-10-19 21:30:24+00:00,,Conjunction_4,22,1,1,1180,0,1037.7390384674072
ADMIN-UCSF-BK004,2017-10-16 21:08:48+00:00,2017-10-19 21:30:24+00:00,,Feature_12,22,0,1,860,0,747.9070425033569
ADMIN-UCSF-BK004,2017-10-16 21:08:48+00:00,2017-10-19 21:30:24+00:00,,Feature_4,22,1,1,920,0,785.4599952697754
ADMIN-UCSF-BK004,2017-10-16 21:08:48+00:00,2017-10-19 21:30:24+00:00,,Conjunction_12,23,1,1,2040,0,1207.219958305359
ADMIN-UCSF-BK004,2017-10-16 21:08:48+00:00,2017-10-19 21:30:24+00:00,,Conjunction_4,23,0,1,1170,0,781.3079953193665
ADMIN-UCSF-BK004,2017-10-16 21:08:48+00:00,2017-10-19 21:30:24+00:00,,Feature_12,23,0,0,850,0,286.4990234375
ADMIN-UCSF-BK004,2017-10-16 21:08:48+00:00,2017-10-19 21:30:24+00:00,,Feature_4,23,1,0,910,1,1008.2129836082458
ADMIN-UCSF-BK004,2017-10-16 21:08:48+00:00,2017-10-19 21:30:24+00:00,,Conjunction_12,24,1,0,2030,1,N/A
ADMIN-UCSF-BK004,2017-10-16 21:08:48+00:00,2017-10-19 21:30:24+00:00,,Conjunction_4,24,0,0,1160,1,1375.1060366630554
ADMIN-UCSF-BK004,2017-10-16 21:08:48+00:00,2017-10-19 21:30:24+00:00,,Feature_12,24,0,1,890,0,616.1819696426392
ADMIN-UCSF-BK004,2017-10-16 21:08:48+00:00,2017-10-19 21:30:24+00:00,,Feature_4,24,0,1,950,0,793.8200235366821
ADMIN-UCSF-BK001,2017-10-16 20:27:18+00:00,2017-10-25 14:31:52+00:00,,Conjunction_12,0,0,0,1000,1,1312.7180337905884
ADMIN-UCSF-BK001,2017-10-16 20:27:18+00:00,2017-10-25 14:31:52+00:00,,Conjunction_4,0,0,0,1000,1,1015.923023223877
ADMIN-UCSF-BK001,2017-10-16 20:27:18+00:00,2017-10-25 14:31:52+00:00,,Feature_12,0,1,0,1000,0,978.9260029792786
ADMIN-UCSF-BK001,2017-10-16 20:27:18+00:00,2017-10-25 14:31:52+00:00,,Feature_4,0,0,1,1000,0,774.3690013885498
ADMIN-UCSF-BK001,2017-10-16 20:27:18+00:00,2017-10-25 14:31:52+00:00,,Conjunction_12,1,1,1,1040,0,739.5079731941223
ADMIN-UCSF-BK001,2017-10-16 20:27:18+00:00,2017-10-25 14:31:52+00:00,,Conjunction_4,1,0,0,1040,1,1110.7400059700012
ADMIN-UCSF-BK001,2017-10-16 20:27:18+00:00,2017-10-25 14:31:52+00:00,,Feature_12,1,0,0,1040,1,1092.065989971161
ADMIN-UCSF-BK001,2017-10-16 20:27:18+00:00,2017-10-25 14:31:52+00:00,,Feature_4,1,0,1,990,0,860.4819774627686
ADMIN-UCSF-BK001,2017-10-16 20:27:18+00:00,2017-10-25 14:31:52+00:00,,Conjunction_12,2,1,0,1030,0,927.187979221344
ADMIN-UCSF-BK001,2017-10-16 20:27:18+00:00,2017-10-25 14:31:52+00:00,,Conjunction_4,2,1,0,1080,1,1260.4960203170776
ADMIN-UCSF-BK001,2017-10-16 20:27:18+00:00,2017-10-25 14:31:52+00:00,,Feature_12,2,1,1,1080,0,950.4870176315308
ADMIN-UCSF-BK001,2017-10-16 20:27:18+00:00,2017-10-25 14:31:52+00:00,,Feature_4,2,1,0,980,0,876.9400119781494
ADMIN-UCSF-BK001,2017-10-16 20:27:18+00:00,2017-10-25 14:31:52+00:00,,Conjunction_12,3,1,1,1070,0,799.115002155304
ADMIN-UCSF-BK001,2017-10-16 20:27:18+00:00,2017-10-25 14:31:52+00:00,,Conjunction_4,3,0,1,1160,0,1053.9119839668274
ADMIN-UCSF-BK001,2017-10-16 20:27:18+00:00,2017-10-25 14:31:52+00:00,,Feature_12,3,0,1,1070,0,901.902973651886
ADMIN-UCSF-BK001,2017-10-16 20:27:18+00:00,2017-10-25 14:31:52+00:00,,Feature_4,3,0,1,1020,0,868.0570125579834
ADMIN-UCSF-BK001,2017-10-16 20:27:18+00:00,2017-10-25 14:31:52+00:00,,Conjunction_12,4,0,0,1060,1,1375.3530383110046
ADMIN-UCSF-BK001,2017-10-16 20:27:18+00:00,2017-10-25 14:31:52+00:00,,Conjunction_4,4,0,0,1150,1,N/A
ADMIN-UCSF-BK001,2017-10-16 20:27:18+00:00,2017-10-25 14:31:52+00:00,,Feature_12,4,0,1,1060,0,884.8769664764404
ADMIN-UCSF-BK001,2017-10-16 20:27:18+00:00,2017-10-25 14:31:52+00:00,,Feature_4,4,1,1,1010,0,870.0299859046936
ADMIN-UCSF-BK001,2017-10-16 20:27:18+00:00,2017-10-25 14:31:52+00:00,,Conjunction_12,5,1,1,1100,0,672.1960306167603
ADMIN-UCSF-BK001,2017-10-16 20:27:18+00:00,2017-10-25 14:31:52+00:00,,Conjunction_4,5,1,0,1190,0,1060.4159832000732
ADMIN-UCSF-BK001,2017-10-16 20:27:18+00:00,2017-10-25 14:31:52+00:00,,Feature_12,5,1,1,1040,0,902.8909802436829
ADMIN-UCSF-BK001,2017-10-16 20:27:18+00:00,2017-10-25 14:31:52+00:00,,Feature_4,5,0,1,1000,0,824.3789672851562
ADMIN-UCSF-BK001,2017-10-16 20:27:18+00:00,2017-10-25 14:31:52+00:00,,Conjunction_12,6,0,1,1090,0,961.2190127372742
ADMIN-UCSF-BK001,2017-10-16 20:27:18+00:00,2017-10-25 14:31:52+00:00,,Conjunction_4,6,1,1,1230,0,989.4850254058838
ADMIN-UCSF-BK001,2017-10-16 20:27:18+00:00,2017-10-25 14:31:52+00:00,,Feature_12,6,0,1,1000,0,904.7629833221436
ADMIN-UCSF-BK001,2017-10-16 20:27:18+00:00,2017-10-25 14:31:52+00:00,,Feature_4,6,1,1,980,0,818.9299702644348
ADMIN-UCSF-BK001,2017-10-16 20:27:18+00:00,2017-10-25 14:31:52+00:00,,Conjunction_12,7,0,1,1080,0,948.8289952278137
ADMIN-UCSF-BK001,2017-10-16 20:27:18+00:00,2017-10-25 14:31:52+00:00,,Conjunction_4,7,1,0,1220,0,1173.7850308418274
ADMIN-UCSF-BK001,2017-10-16 20:27:18+00:00,2017-10-25 14:31:52+00:00,,Feature_12,7,1,0,920,1,1012.0840072631836
ADMIN-UCSF-BK001,2017-10-16 20:27:18+00:00,2017-10-25 14:31:52+00:00,,Feature_4,7,0,1,940,0,856.0330271720886
ADMIN-UCSF-BK001,2017-10-16 20:27:18+00:00,2017-10-25 14:31:52+00:00,,Conjunction_12,8,0,1,1060,0,910.3839993476868
ADMIN-UCSF-BK001,2017-10-16 20:27:18+00:00,2017-10-25 14:31:52+00:00,,Conjunction_4,8,0,1,1260,0,1013.8689875602722
ADMIN-UCSF-BK001,2017-10-16 20:27:18+00:00,2017-10-25 14:31:52+00:00,,Feature_12,8,0,1,960,0,757.860004901886
ADMIN-UCSF-BK001,2017-10-16 20:27:18+00:00,2017-10-25 14:31:52+00:00,,Feature_4,8,1,1,860,0,777.1260142326355
ADMIN-UCSF-BK001,2017-10-16 20:27:18+00:00,2017-10-25 14:31:52+00:00,,Conjunction_12,9,1,0,1020,1,1155.0529599189758
ADMIN-UCSF-BK001,2017-10-16 20:27:18+00:00,2017-10-25 14:31:52+00:00,,Conjunction_4,9,1,1,1250,0,990.0429844856262
ADMIN-UCSF-BK001,2017-10-16 20:27:18+00:00,2017-10-25 14:31:52+00:00,,Feature_12,9,0,0,950,1,1323.0180144309998
ADMIN-UCSF-BK001,2017-10-16 20:27:18+00:00,2017-10-25 14:31:52+00:00,,Feature_4,9,0,0,700,1,972.1530079841614
ADMIN-UCSF-BK001,2017-10-16 20:27:18+00:00,2017-10-25 14:31:52+00:00,,Conjunction_12,10,0,0,1060,0,911.689043045044
ADMIN-UCSF-BK001,2017-10-16 20:27:18+00:00,2017-10-25 14:31:52+00:00,,Conjunction_4,10,0,0,1240,1,1406.5099954605103
ADMIN-UCSF-BK001,2017-10-16 20:27:18+00:00,2017-10-25 14:31:52+00:00,,Feature_12,10,0,1,990,0,856.5479516983032
ADMIN-UCSF-BK001,2017-10-16 20:27:18+00:00,2017-10-25 14:31:52+00:00,,Feature_4,10,0,0,740,1,921.4169979095459
ADMIN-UCSF-BK001,2017-10-16 20:27:18+00:00,2017-10-25 14:31:52+00:00,,Conjunction_12,11,1,0,1100,0,957.2000503540039
ADMIN-UCSF-BK001,2017-10-16 20:27:18+00:00,2017-10-25 14:31:52+00:00,,Conjunction_4,11,0,1,1280,0,858.6260080337524
ADMIN-UCSF-BK001,2017-10-16 20:27:18+00:00,2017-10-25 14:31:52+00:00,,Feature_12,11,0,1,980,0,873.9749789237976
ADMIN-UCSF-BK001,2017-10-16 20:27:18+00:00,2017-10-25 14:31:52+00:00,,Feature_4,11,0,0,780,1,818.4540271759033
ADMIN-UCSF-BK001,2017-10-16 20:27:18+00:00,2017-10-25 14:31:52+00:00,,Conjunction_12,12,0,0,1180,1,1309.4630241394043
ADMIN-UCSF-BK001,2017-10-16 20:27:18+00:00,2017-10-25 14:31:52+00:00,,Conjunction_4,12,1,1,1270,0,1181.7449927330017
ADMIN-UCSF-BK001,2017-10-16 20:27:18+00:00,2017-10-25 14:31:52+00:00,,Feature_12,12,0,1,970,0,799.3350028991699
ADMIN-UCSF-BK001,2017-10-16 20:27:18+00:00,2017-10-25 14:31:52+00:00,,Feature_4,12,1,0,860,1,1079.3139934539795
ADMIN-UCSF-BK001,2017-10-16 20:27:18+00:00,2017-10-25 14:31:52+00:00,,Conjunction_12,13,1,0,1340,0,1134.0640187263489
ADMIN-UCSF-BK001,2017-10-16 20:27:18+00:00,2017-10-25 14:31:52+00:00,,Conjunction_4,13,0,1,1260,0,1132.200002670288
ADMIN-UCSF-BK001,2017-10-16 20:27:18+00:00,2017-10-25 14:31:52+00:00,,Feature_12,13,1,1,950,0,809.9930286407471
ADMIN-UCSF-BK001,2017-10-16 20:27:18+00:00,2017-10-25 14:31:52+00:00,,Feature_4,13,0,0,1020,1,N/A
ADMIN-UCSF-BK001,2017-10-16 20:27:18+00:00,2017-10-25 14:31:52+00:00,,Conjunction_12,14,0,1,1660,0,941.5320158004761
ADMIN-UCSF-BK001,2017-10-16 20:27:18+00:00,2017-10-25 14:31:52+00:00,,Conjunction_4,14,1,1,1240,0,1183.5429668426514
ADMIN-UCSF-BK001,2017-10-16 20:27:18+00:00,2017-10-25 14:31:52+00:00,,Feature_12,14,0,0,910,1,1099.4409918785095
ADMIN-UCSF-BK001,2017-10-16 20:27:18+00:00,2017-10-25 14:31:52+00:00,,Feature_4,14,1,1,1340,0,903.9340019226074
ADMIN-UCSF-BK001,2017-10-16 20:27:18+00:00,2017-10-25 14:31:52+00:00,,Conjunction_12,15,0,0,1650,1,N/A
ADMIN-UCSF-BK001,2017-10-16 20:27:18+00:00,2017-10-25 14:31:52+00:00,,Conjunction_4,15,0,0,1200,1,N/A
ADMIN-UCSF-BK001,2017-10-16 20:27:18+00:00,2017-10-25 14:31:52+00:00,,Feature_12,15,1,1,950,0,864.1860485076904
ADMIN-UCSF-BK001,2017-10-16 20:27:18+00:00,2017-10-25 14:31:52+00:00,,Feature_4,15,1,0,1330,0,961.2530469894409
ADMIN-UCSF-BK001,2017-10-16 20:27:18+00:00,2017-10-25 14:31:52+00:00,,Conjunction_12,16,1,1,1690,0,839.9389982223511
ADMIN-UCSF-BK001,2017-10-16 20:27:18+00:00,2017-10-25 14:31:52+00:00,,Conjunction_4,16,1,0,1240,1,1288.6269688606262
ADMIN-UCSF-BK001,2017-10-16 20:27:18+00:00,2017-10-25 14:31:52+00:00,,Feature_12,16,0,1,940,0,846.6629981994629
ADMIN-UCSF-BK001,2017-10-16 20:27:18+00:00,2017-10-25 14:31:52+00:00,,Feature_4,16,0,1,1370,0,1023.0159759521484
ADMIN-UCSF-BK001,2017-10-16 20:27:18+00:00,2017-10-25 14:31:52+00:00,,Conjunction_12,17,1,0,1680,0,1284.9420309066772
ADMIN-UCSF-BK001,2017-10-16 20:27:18+00:00,2017-10-25 14:31:52+00:00,,Conjunction_4,17,1,1,1280,0,1060.362994670868
ADMIN-UCSF-BK001,2017-10-16 20:27:18+00:00,2017-10-25 14:31:52+00:00,,Feature_12,17,1,1,930,0,839.4690155982971
ADMIN-UCSF-BK001,2017-10-16 20:27:18+00:00,2017-10-25 14:31:52+00:00,,Feature_4,17,1,1,1360,0,774.3859887123108
ADMIN-UCSF-BK001,2017-10-16 20:27:18+00:00,2017-10-25 14:31:52+00:00,,Conjunction_12,18,1,0,1720,0,N/A
ADMIN-UCSF-BK001,2017-10-16 20:27:18+00:00,2017-10-25 14:31:52+00:00,,Conjunction_4,18,1,1,1270,0,981.8150401115417
ADMIN-UCSF-BK001,2017-10-16 20:27:18+00:00,2017-10-25 14:31:52+00:00,,Feature_12,18,0,0,910,1,1024.718999862671
ADMIN-UCSF-BK001,2017-10-16 20:27:18+00:00,2017-10-25 14:31:52+00:00,,Feature_4,18,1,1,1350,0,862.8699779510498
ADMIN-UCSF-BK001,2017-10-16 20:27:18+00:00,2017-10-25 14:31:52+00:00,,Conjunction_12,19,1,1,1760,0,993.5539960861206
ADMIN-UCSF-BK001,2017-10-16 20:27:18+00:00,2017-10-25 14:31:52+00:00,,Conjunction_4,19,1,0,1260,0,1092.5120115280151
ADMIN-UCSF-BK001,2017-10-16 20:27:18+00:00,2017-10-25 14:31:52+00:00,,Feature_12,19,1,1,950,0,904.2009711265564
ADMIN-UCSF-BK001,2017-10-16 20:27:18+00:00,2017-10-25 14:31:52+00:00,,Feature_4,19,1,0,1330,0,908.066987991333
ADMIN-UCSF-BK001,2017-10-16 20:27:18+00:00,2017-10-25 14:31:52+00:00,,Conjunction_12,20,0,1,1750,0,1252.8070211410522
ADMIN-UCSF-BK001,2017-10-16 20:27:18+00:00,2017-10-25 14:31:52+00:00,,Conjunction_4,20,1,0,1300,0,1208.8930010795593
ADMIN-UCSF-BK001,2017-10-16 20:27:18+00:00,2017-10-25 14:31:52+00:00,,Feature_12,20,1,0,940,1,997.7110028266907
ADMIN-UCSF-BK001,2017-10-16 20:27:18+00:00,2017-10-25 14:31:52+00:00,,Feature_4,20,1,1,1370,0,872.3189830780029
ADMIN-UCSF-BK001,2017-10-16 20:27:18+00:00,2017-10-25 14:31:52+00:00,,Conjunction_12,21,1,0,1740,0,1201.2110352516174
ADMIN-UCSF-BK001,2017-10-16 20:27:18+00:00,2017-10-25 14:31:52+00:00,,Conjunction_4,21,1,1,1340,0,845.17502784729
ADMIN-UCSF-BK001,2017-10-16 20:27:18+00:00,2017-10-25 14:31:52+00:00,,Feature_12,21,1,1,980,0,939.799964427948
ADMIN-UCSF-BK001,2017-10-16 20:27:18+00:00,2017-10-25 14:31:52+00:00,,Feature_4,21,0,1,1360,0,901.0570049285889
ADMIN-UCSF-BK001,2017-10-16 20:27:18+00:00,2017-10-25 14:31:52+00:00,,Conjunction_12,22,0,1,1780,0,1013.5520100593567
ADMIN-UCSF-BK001,2017-10-16 20:27:18+00:00,2017-10-25 14:31:52+00:00,,Conjunction_4,22,0,1,1330,0,1159.0499877929688
ADMIN-UCSF-BK001,2017-10-16 20:27:18+00:00,2017-10-25 14:31:52+00:00,,Feature_12,22,1,0,970,1,1039.2019748687744
ADMIN-UCSF-BK001,2017-10-16 20:27:18+00:00,2017-10-25 14:31:52+00:00,,Feature_4,22,1,0,1350,0,767.238974571228
ADMIN-UCSF-BK001,2017-10-16 20:27:18+00:00,2017-10-25 14:31:52+00:00,,Conjunction_12,23,1,1,1770,0,982.7470183372498
ADMIN-UCSF-BK001,2017-10-16 20:27:18+00:00,2017-10-25 14:31:52+00:00,,Conjunction_4,23,0,1,1320,0,1045.4999804496765
ADMIN-UCSF-BK001,2017-10-16 20:27:18+00:00,2017-10-25 14:31:52+00:00,,Feature_12,23,1,1,1010,0,994.189977645874
ADMIN-UCSF-BK001,2017-10-16 20:27:18+00:00,2017-10-25 14:31:52+00:00,,Feature_4,23,0,1,1390,0,829.5320272445679
ADMIN-UCSF-BK001,2017-10-16 20:27:18+00:00,2017-10-25 14:31:52+00:00,,Conjunction_12,24,0,1,1760,0,1053.512990474701
ADMIN-UCSF-BK001,2017-10-16 20:27:18+00:00,2017-10-25 14:31:52+00:00,,Conjunction_4,24,0,1,1300,0,1219.3779945373535
ADMIN-UCSF-BK001,2017-10-16 20:27:18+00:00,2017-10-25 14:31:52+00:00,,Feature_12,24,1,1,1000,0,966.401994228363
ADMIN-UCSF-BK001,2017-10-16 20:27:18+00:00,2017-10-25 14:31:52+00:00,,Feature_4,24,1,1,1380,0,667.1880483627319
ADMIN-UCSF-BK007,2018-01-30 21:20:27+00:00,2018-02-02 21:20:48+00:00,,Conjunction_12,0,1,0,1000,1,N/A
ADMIN-UCSF-BK007,2018-01-30 21:20:27+00:00,2018-02-02 21:20:48+00:00,,Conjunction_4,0,0,0,1000,1,1323.296070098877
ADMIN-UCSF-BK007,2018-01-30 21:20:27+00:00,2018-02-02 21:20:48+00:00,,Feature_12,0,1,1,1000,0,647.3349332809448
ADMIN-UCSF-BK007,2018-01-30 21:20:27+00:00,2018-02-02 21:20:48+00:00,,Feature_4,0,0,1,1000,0,921.5359687805176
ADMIN-UCSF-BK007,2018-01-30 21:20:27+00:00,2018-02-02 21:20:48+00:00,,Conjunction_12,1,0,0,1040,1,1340.2410745620728
ADMIN-UCSF-BK007,2018-01-30 21:20:27+00:00,2018-02-02 21:20:48+00:00,,Conjunction_4,1,0,0,1040,1,1285.094976425171
ADMIN-UCSF-BK007,2018-01-30 21:20:27+00:00,2018-02-02 21:20:48+00:00,,Feature_12,1,0,1,990,0,685.1499080657959
ADMIN-UCSF-BK007,2018-01-30 21:20:27+00:00,2018-02-02 21:20:48+00:00,,Feature_4,1,0,1,990,0,752.2259950637817
ADMIN-UCSF-BK007,2018-01-30 21:20:27+00:00,2018-02-02 21:20:48+00:00,,Conjunction_12,2,1,1,1080,0,625.9880065917969
ADMIN-UCSF-BK007,2018-01-30 21:20:27+00:00,2018-02-02 21:20:48+00:00,,Conjunction_4,2,1,1,1080,0,973.9929437637329
ADMIN-UCSF-BK007,2018-01-30 21:20:27+00:00,2018-02-02 21:20:48+00:00,,Feature_12,2,0,1,980,0,737.186074256897
ADMIN-UCSF-BK007,2018-01-30 21:20:27+00:00,2018-02-02 21:20:48+00:00,,Feature_4,2,1,1,980,0,576.4559507369995
ADMIN-UCSF-BK007,2018-01-30 21:20:27+00:00,2018-02-02 21:20:48+00:00,,Conjunction_12,3,1,0,1070,1,1424.0769147872925
ADMIN-UCSF-BK007,2018-01-30 21:20:27+00:00,2018-02-02 21:20:48+00:00,,Conjunction_4,3,1,1,1070,0,667.7860021591187
ADMIN-UCSF-BK007,2018-01-30 21:20:27+00:00,2018-02-02 21:20:48+00:00,,Feature_12,3,0,1,960,0,787.5460386276245
ADMIN-UCSF-BK007,2018-01-30 21:20:27+00:00,2018-02-02 21:20:48+00:00,,Feature_4,3,0,0,960,0,610.6499433517456
ADMIN-UCSF-BK007,2018-01-30 21:20:27+00:00,2018-02-02 21:20:48+00:00,,Conjunction_12,4,0,0,1110,1,1377.8140544891357
ADMIN-UCSF-BK007,2018-01-30 21:20:27+00:00,2018-02-02 21:20:48+00:00,,Conjunction_4,4,0,0,1060,1,1088.8769626617432
ADMIN-UCSF-BK007,2018-01-30 21:20:27+00:00,2018-02-02 21:20:48+00:00,,Feature_12,4,1,1,920,0,629.925012588501
ADMIN-UCSF-BK007,2018-01-30 21:20:27+00:00,2018-02-02 21:20:48+00:00,,Feature_4,4,0,0,1000,0,676.4589548110962
ADMIN-UCSF-BK007,2018-01-30 21:20:27+00:00,2018-02-02 21:20:48+00:00,,Conjunction_12,5,1,0,1150,1,1175.8900880813599
ADMIN-UCSF-BK007,2018-01-30 21:20:27+00:00,2018-02-02 21:20:48+00:00,,Conjunction_4,5,0,0,1100,1,1231.7460775375366
ADMIN-UCSF-BK007,2018-01-30 21:20:27+00:00,2018-02-02 21:20:48+00:00,,Feature_12,5,0,0,840,1,870.1349496841431
ADMIN-UCSF-BK007,2018-01-30 21:20:27+00:00,2018-02-02 21:20:48+00:00,,Feature_4,5,1,1,1040,0,665.5960083007812
ADMIN-UCSF-BK007,2018-01-30 21:20:27+00:00,2018-02-02 21:20:48+00:00,,Conjunction_12,6,0,0,1230,1,1439.1649961471558
ADMIN-UCSF-BK007,2018-01-30 21:20:27+00:00,2018-02-02 21:20:48+00:00,,Conjunction_4,6,1,1,1140,0,877.8600692749023
ADMIN-UCSF-BK007,2018-01-30 21:20:27+00:00,2018-02-02 21:20:48+00:00,,Feature_12,6,1,1,880,0,677.9270172119141
ADMIN-UCSF-BK007,2018-01-30 21:20:27+00:00,2018-02-02 21:20:48+00:00,,Feature_4,6,1,1,1030,0,675.3560304641724
ADMIN-UCSF-BK007,2018-01-30 21:20:27+00:00,2018-02-02 21:20:48+00:00,,Conjunction_12,7,0,1,1390,0,1307.1160316467285
ADMIN-UCSF-BK007,2018-01-30 21:20:27+00:00,2018-02-02 21:20:48+00:00,,Conjunction_4,7,1,1,1130,0,697.1840858459473
ADMIN-UCSF-BK007,2018-01-30 21:20:27+00:00,2018-02-02 21:20:48+00:00,,Feature_12,7,1,1,870,0,661.3140106201172
ADMIN-UCSF-BK007,2018-01-30 21:20:27+00:00,2018-02-02 21:20:48+00:00,,Feature_4,7,0,1,1020,0,891.7770385742188
ADMIN-UCSF-BK007,2018-01-30 21:20:27+00:00,2018-02-02 21:20:48+00:00,,Conjunction_12,8,0,0,1380,0,1094.905972480774
ADMIN-UCSF-BK007,2018-01-30 21:20:27+00:00,2018-02-02 21:20:48+00:00,,Conjunction_4,8,0,0,1120,1,1130.5299997329712
ADMIN-UCSF-BK007,2018-01-30 21:20:27+00:00,2018-02-02 21:20:48+00:00,,Feature_12,8,0,1,860,0,762.374997138977
ADMIN-UCSF-BK007,2018-01-30 21:20:27+00:00,2018-02-02 21:20:48+00:00,,Feature_4,8,0,1,1000,0,669.0579652786255
ADMIN-UCSF-BK007,2018-01-30 21:20:27+00:00,2018-02-02 21:20:48+00:00,,Conjunction_12,9,1,1,1420,0,1021.4880704879761
ADMIN-UCSF-BK007,2018-01-30 21:20:27+00:00,2018-02-02 21:20:48+00:00,,Conjunction_4,9,1,1,1160,0,722.0309972763062
ADMIN-UCSF-BK007,2018-01-30 21:20:27+00:00,2018-02-02 21:20:48+00:00,,Feature_12,9,1,1,840,0,510.5689764022827
ADMIN-UCSF-BK007,2018-01-30 21:20:27+00:00,2018-02-02 21:20:48+00:00,,Feature_4,9,1,1,960,0,684.9309206008911
ADMIN-UCSF-BK007,2018-01-30 21:20:27+00:00,2018-02-02 21:20:48+00:00,,Conjunction_12,10,1,1,1410,0,1246.0119724273682
ADMIN-UCSF-BK007,2018-01-30 21:20:27+00:00,2018-02-02 21:20:48+00:00,,Conjunction_4,10,0,1,1150,0,981.3860654830933
ADMIN-UCSF-BK007,2018-01-30 21:20:27+00:00,2018-02-02 21:20:48+00:00,,Feature_12,10,1,1,800,0,608.8790893554688
ADMIN-UCSF-BK007,2018-01-30 21:20:27+00:00,2018-02-02 21:20:48+00:00,,Feature_4,10,1,1,880,0,828.1459808349609
ADMIN-UCSF-BK007,2018-01-30 21:20:27+00:00,2018-02-02 21:20:48+00:00,,Conjunction_12,11,0,1,1400,0,1137.6540660858154
ADMIN-UCSF-BK007,2018-01-30 21:20:27+00:00,2018-02-02 21:20:48+00:00,,Conjunction_4,11,0,0,1140,1,1169.8249578475952
ADMIN-UCSF-BK007,2018-01-30 21:20:27+00:00,2018-02-02 21:20:48+00:00,,Feature_12,11,1,0,720,1,744.5000410079956
ADMIN-UCSF-BK007,2018-01-30 21:20:27+00:00,2018-02-02 21:20:48+00:00,,Feature_4,11,1,0,720,1,792.9860353469849
ADMIN-UCSF-BK007,2018-01-30 21:20:27+00:00,2018-02-02 21:20:48+00:00,,Conjunction_12,12,1,1,1380,0,636.591911315918
ADMIN-UCSF-BK007,2018-01-30 21:20:27+00:00,2018-02-02 21:20:48+00:00,,Conjunction_4,12,1,0,1180,1,N/A
ADMIN-UCSF-BK007,2018-01-30 21:20:27+00:00,2018-02-02 21:20:48+00:00,,Feature_12,12,0,0,760,1,874.7730255126953
ADMIN-UCSF-BK007,2018-01-30 21:20:27+00:00,2018-02-02 21:20:48+00:00,,Feature_4,12,0,1,760,0,733.7040901184082
ADMIN-UCSF-BK007,2018-01-30 21:20:27+00:00,2018-02-02 21:20:48+00:00,,Conjunction_12,13,0,0,1340,1,N/A
ADMIN-UCSF-BK007,2018-01-30 21:20:27+00:00,2018-02-02 21:20:48+00:00,,Conjunction_4,13,0,1,1220,0,758.1609487533569
ADMIN-UCSF-BK007,2018-01-30 21:20:27+00:00,2018-02-02 21:20:48+00:00,,Feature_12,13,1,0,800,1,1017.833948135376
ADMIN-UCSF-BK007,2018-01-30 21:20:27+00:00,2018-02-02 21:20:48+00:00,,Feature_4,13,1,1,750,0,667.9590940475464
ADMIN-UCSF-BK007,2018-01-30 21:20:27+00:00,2018-02-02 21:20:48+00:00,,Conjunction_12,14,1,1,1380,0,1355.8650016784668
ADMIN-UCSF-BK007,2018-01-30 21:20:27+00:00,2018-02-02 21:20:48+00:00,,Conjunction_4,14,1,1,1210,0,611.003041267395
ADMIN-UCSF-BK007,2018-01-30 21:20:27+00:00,2018-02-02 21:20:48+00:00,,Feature_12,14,1,1,880,0,813.8530254364014
ADMIN-UCSF-BK007,2018-01-30 21:20:27+00:00,2018-02-02 21:20:48+00:00,,Feature_4,14,1,1,740,0,481.8429946899414
ADMIN-UCSF-BK007,2018-01-30 21:20:27+00:00,2018-02-02 21:20:48+00:00,,Conjunction_12,15,0,1,1370,0,1238.508939743042
ADMIN-UCSF-BK007,2018-01-30 21:20:27+00:00,2018-02-02 21:20:48+00:00,,Conjunction_4,15,0,0,1200,1,1307.1140050888062
ADMIN-UCSF-BK007,2018-01-30 21:20:27+00:00,2018-02-02 21:20:48+00:00,,Feature_12,15,0,1,870,0,725.6020307540894
ADMIN-UCSF-BK007,2018-01-30 21:20:27+00:00,2018-02-02 21:20:48+00:00,,Feature_4,15,0,0,720,1,908.7868928909302
ADMIN-UCSF-BK007,2018-01-30 21:20:27+00:00,2018-02-02 21:20:48+00:00,,Conjunction_12,16,0,0,1360,0,1164.270043373108
ADMIN-UCSF-BK007,2018-01-30 21:20:27+00:00,2018-02-02 21:20:48+00:00,,Conjunction_4,16,0,0,1240,1,1319.1229104995728
ADMIN-UCSF-BK007,2018-01-30 21:20:27+00:00,2018-02-02 21:20:48+00:00,,Feature_12,16,1,1,860,0,750.108003616333
ADMIN-UCSF-BK007,2018-01-30 21:20:27+00:00,2018-02-02 21:20:48+00:00,,Feature_4,16,0,1,760,0,734.5149517059326
ADMIN-UCSF-BK007,2018-01-30 21:20:27+00:00,2018-02-02 21:20:48+00:00,,Conjunction_12,17,0,1,1400,0,845.695972442627
ADMIN-UCSF-BK007,2018-01-30 21:20:27+00:00,2018-02-02 21:20:48+00:00,,Conjunction_4,17,1,1,1280,0,996.8138933181763
ADMIN-UCSF-BK007,2018-01-30 21:20:27+00:00,2018-02-02 21:20:48+00:00,,Feature_12,17,0,1,840,0,668.626070022583
ADMIN-UCSF-BK007,2018-01-30 21:20:27+00:00,2018-02-02 21:20:48+00:00,,Feature_4,17,1,1,750,0,548.2980012893677
ADMIN-UCSF-BK007,2018-01-30 21:20:27+00:00,2018-02-02 21:20:48+00:00,,Conjunction_12,18,1,0,1390,1,N/A
ADMIN-UCSF-BK007,2018-01-30 21:20:27+00:00,2018-02-02 21:20:48+00:00,,Conjunction_4,18,0,1,1270,0,1128.8909912109375
ADMIN-UCSF-BK007,2018-01-30 21:20:27+00:00,2018-02-02 21:20:48+00:00,,Feature_12,18,0,1,800,0,645.1029777526855
ADMIN-UCSF-BK007,2018-01-30 21:20:27+00:00,2018-02-02 21:20:48+00:00,,Feature_4,18,1,1,740,0,641.103982925415
ADMIN-UCSF-BK007,2018-01-30 21:20:27+00:00,2018-02-02 21:20:48+00:00,,Conjunction_12,19,1,0,1430,1,1508.1321001052856
ADMIN-UCSF-BK007,2018-01-30 21:20:27+00:00,2018-02-02 21:20:48+00:00,,Conjunction_4,19,1,1,1260,0,844.7650671005249
ADMIN-UCSF-BK007,2018-01-30 21:20:27+00:00,2018-02-02 21:20:48+00:00,,Feature_12,19,0,1,720,0,575.713038444519
ADMIN-UCSF-BK007,2018-01-30 21:20:27+00:00,2018-02-02 21:20:48+00:00,,Feature_4,19,0,1,720,0,716.6509628295898
ADMIN-UCSF-BK007,2018-01-30 21:20:27+00:00,2018-02-02 21:20:48+00:00,,Conjunction_12,20,1,1,1470,0,1031.4860343933105
ADMIN-UCSF-BK007,2018-01-30 21:20:27+00:00,2018-02-02 21:20:48+00:00,,Conjunction_4,20,1,1,1240,0,845.6120491027832
ADMIN-UCSF-BK007,2018-01-30 21:20:27+00:00,2018-02-02 21:20:48+00:00,,Feature_12,20,1,0,560,1,564.3320083618164
ADMIN-UCSF-BK007,2018-01-30 21:20:27+00:00,2018-02-02 21:20:48+00:00,,Feature_4,20,1,1,680,0,542.4039363861084
ADMIN-UCSF-BK007,2018-01-30 21:20:27+00:00,2018-02-02 21:20:48+00:00,,Conjunction_12,21,1,1,1460,0,1261.8749141693115
ADMIN-UCSF-BK007,2018-01-30 21:20:27+00:00,2018-02-02 21:20:48+00:00,,Conjunction_4,21,1,1,1200,0,672.5690364837646
ADMIN-UCSF-BK007,2018-01-30 21:20:27+00:00,2018-02-02 21:20:48+00:00,,Feature_12,21,0,0,600,1,653.6730527877808
ADMIN-UCSF-BK007,2018-01-30 21:20:27+00:00,2018-02-02 21:20:48+00:00,,Feature_4,21,0,1,600,0,506.96301460266113
ADMIN-UCSF-BK007,2018-01-30 21:20:27+00:00,2018-02-02 21:20:48+00:00,,Conjunction_12,22,1,1,1450,0,790.8849716186523
ADMIN-UCSF-BK007,2018-01-30 21:20:27+00:00,2018-02-02 21:20:48+00:00,,Conjunction_4,22,0,1,1120,0,778.11598777771
ADMIN-UCSF-BK007,2018-01-30 21:20:27+00:00,2018-02-02 21:20:48+00:00,,Feature_12,22,1,0,640,1,867.4989938735962
ADMIN-UCSF-BK007,2018-01-30 21:20:27+00:00,2018-02-02 21:20:48+00:00,,Feature_4,22,1,0,440,1,529.9509763717651
ADMIN-UCSF-BK007,2018-01-30 21:20:27+00:00,2018-02-02 21:20:48+00:00,,Conjunction_12,23,0,0,1430,0,462.26000785827637
ADMIN-UCSF-BK007,2018-01-30 21:20:27+00:00,2018-02-02 21:20:48+00:00,,Conjunction_4,23,1,0,960,1,977.8831005096436
ADMIN-UCSF-BK007,2018-01-30 21:20:27+00:00,2018-02-02 21:20:48+00:00,,Feature_12,23,1,0,720,1,835.5228900909424
ADMIN-UCSF-BK007,2018-01-30 21:20:27+00:00,2018-02-02 21:20:48+00:00,,Feature_4,23,1,0,480,1,613.2199764251709
ADMIN-UCSF-BK007,2018-01-30 21:20:27+00:00,2018-02-02 21:20:48+00:00,,Conjunction_12,24,0,1,1470,0,1259.477972984314
ADMIN-UCSF-BK007,2018-01-30 21:20:27+00:00,2018-02-02 21:20:48+00:00,,Conjunction_4,24,1,1,1000,0,860.7910871505737
ADMIN-UCSF-BK007,2018-01-30 21:20:27+00:00,2018-02-02 21:20:48+00:00,,Feature_12,24,0,1,880,0,725.3080606460571
ADMIN-UCSF-BK007,2018-01-30 21:20:27+00:00,2018-02-02 21:20:48+00:00,,Feature_4,24,0,0,520,1,724.0140438079834
ADMIN-UCSF-BK008,2018-01-30 21:39:34+00:00,2018-02-02 21:20:48+00:00,,Conjunction_12,0,1,0,1000,1,1467.9369926452637
ADMIN-UCSF-BK008,2018-01-30 21:39:34+00:00,2018-02-02 21:20:48+00:00,,Conjunction_4,0,0,0,1000,1,1186.702013015747
ADMIN-UCSF-BK008,2018-01-30 21:39:34+00:00,2018-02-02 21:20:48+00:00,,Feature_12,0,0,1,1000,0,903.5530090332031
ADMIN-UCSF-BK008,2018-01-30 21:39:34+00:00,2018-02-02 21:20:48+00:00,,Feature_4,0,0,1,1000,0,734.6670627593994
ADMIN-UCSF-BK008,2018-01-30 21:39:34+00:00,2018-02-02 21:20:48+00:00,,Conjunction_12,1,1,0,1040,1,1171.2679862976074
ADMIN-UCSF-BK008,2018-01-30 21:39:34+00:00,2018-02-02 21:20:48+00:00,,Conjunction_4,1,0,0,1040,1,1497.4679946899414
ADMIN-UCSF-BK008,2018-01-30 21:39:34+00:00,2018-02-02 21:20:48+00:00,,Feature_12,1,1,1,990,0,760.4770660400391
ADMIN-UCSF-BK008,2018-01-30 21:39:34+00:00,2018-02-02 21:20:48+00:00,,Feature_4,1,0,1,990,0,711.0939025878906
ADMIN-UCSF-BK008,2018-01-30 21:39:34+00:00,2018-02-02 21:20:48+00:00,,Conjunction_12,2,0,0,1080,1,1496.4369535446167
ADMIN-UCSF-BK008,2018-01-30 21:39:34+00:00,2018-02-02 21:20:48+00:00,,Conjunction_4,2,0,1,1080,0,678.1100034713745
ADMIN-UCSF-BK008,2018-01-30 21:39:34+00:00,2018-02-02 21:20:48+00:00,,Feature_12,2,0,1,980,0,603.7169694900513
ADMIN-UCSF-BK008,2018-01-30 21:39:34+00:00,2018-02-02 21:20:48+00:00,,Feature_4,2,0,1,980,0,660.5210304260254
ADMIN-UCSF-BK008,2018-01-30 21:39:34+00:00,2018-02-02 21:20:48+00:00,,Conjunction_12,3,0,0,1160,1,N/A
ADMIN-UCSF-BK008,2018-01-30 21:39:34+00:00,2018-02-02 21:20:48+00:00,,Conjunction_4,3,1,1,1070,0,998.2810020446777
ADMIN-UCSF-BK008,2018-01-30 21:39:34+00:00,2018-02-02 21:20:48+00:00,,Feature_12,3,0,1,960,0,581.279993057251
ADMIN-UCSF-BK008,2018-01-30 21:39:34+00:00,2018-02-02 21:20:48+00:00,,Feature_4,3,1,1,960,0,576.1189460754395
ADMIN-UCSF-BK008,2018-01-30 21:39:34+00:00,2018-02-02 21:20:48+00:00,,Conjunction_12,4,1,0,1320,1,N/A
ADMIN-UCSF-BK008,2018-01-30 21:39:34+00:00,2018-02-02 21:20:48+00:00,,Conjunction_4,4,1,1,1060,0,932.6279163360596
ADMIN-UCSF-BK008,2018-01-30 21:39:34+00:00,2018-02-02 21:20:48+00:00,,Feature_12,4,0,1,920,0,826.714038848877
ADMIN-UCSF-BK008,2018-01-30 21:39:34+00:00,2018-02-02 21:20:48+00:00,,Feature_4,4,0,1,920,0,532.4139595031738
ADMIN-UCSF-BK008,2018-01-30 21:39:34+00:00,2018-02-02 21:20:48+00:00,,Conjunction_12,5,1,1,1640,0,1188.4779930114746
ADMIN-UCSF-BK008,2018-01-30 21:39:34+00:00,2018-02-02 21:20:48+00:00,,Conjunction_4,5,1,0,1040,1,1110.489010810852
ADMIN-UCSF-BK008,2018-01-30 21:39:34+00:00,2018-02-02 21:20:48+00:00,,Feature_12,5,1,1,840,0,762.861967086792
ADMIN-UCSF-BK008,2018-01-30 21:39:34+00:00,2018-02-02 21:20:48+00:00,,Feature_4,5,0,1,840,0,526.5159606933594
ADMIN-UCSF-BK008,2018-01-30 21:39:34+00:00,2018-02-02 21:20:48+00:00,,Conjunction_12,6,0,1,1630,0,1293.4930324554443
ADMIN-UCSF-BK008,2018-01-30 21:39:34+00:00,2018-02-02 21:20:48+00:00,,Conjunction_4,6,1,1,1080,0,962.3029232025146
ADMIN-UCSF-BK008,2018-01-30 21:39:34+00:00,2018-02-02 21:20:48+00:00,,Feature_12,6,1,0,680,1,819.8750019073486
ADMIN-UCSF-BK008,2018-01-30 21:39:34+00:00,2018-02-02 21:20:48+00:00,,Feature_4,6,1,1,680,0,571.3769197463989
ADMIN-UCSF-BK008,2018-01-30 21:39:34+00:00,2018-02-02 21:20:48+00:00,,Conjunction_12,7,1,1,1620,0,930.0709962844849
ADMIN-UCSF-BK008,2018-01-30 21:39:34+00:00,2018-02-02 21:20:48+00:00,,Conjunction_4,7,1,1,1070,0,730.8250665664673
ADMIN-UCSF-BK008,2018-01-30 21:39:34+00:00,2018-02-02 21:20:48+00:00,,Feature_12,7,1,0,720,1,745.5530166625977
ADMIN-UCSF-BK008,2018-01-30 21:39:34+00:00,2018-02-02 21:20:48+00:00,,Feature_4,7,1,0,360,1,693.8420534133911
ADMIN-UCSF-BK008,2018-01-30 21:39:34+00:00,2018-02-02 21:20:48+00:00,,Conjunction_12,8,0,1,1600,0,867.5121068954468
ADMIN-UCSF-BK008,2018-01-30 21:39:34+00:00,2018-02-02 21:20:48+00:00,,Conjunction_4,8,1,1,1060,0,949.5600461959839
ADMIN-UCSF-BK008,2018-01-30 21:39:34+00:00,2018-02-02 21:20:48+00:00,,Feature_12,8,0,1,760,0,502.282977104187
ADMIN-UCSF-BK008,2018-01-30 21:39:34+00:00,2018-02-02 21:20:48+00:00,,Feature_4,8,1,0,400,1,501.12903118133545
ADMIN-UCSF-BK008,2018-01-30 21:39:34+00:00,2018-02-02 21:20:48+00:00,,Conjunction_12,9,1,0,1560,1,N/A
ADMIN-UCSF-BK008,2018-01-30 21:39:34+00:00,2018-02-02 21:20:48+00:00,,Conjunction_4,9,0,1,1040,0,946.1749792098999
ADMIN-UCSF-BK008,2018-01-30 21:39:34+00:00,2018-02-02 21:20:48+00:00,,Feature_12,9,1,0,750,0,663.0589962005615
ADMIN-UCSF-BK008,2018-01-30 21:39:34+00:00,2018-02-02 21:20:48+00:00,,Feature_4,9,1,0,440,1,700.2990245819092
ADMIN-UCSF-BK008,2018-01-30 21:39:34+00:00,2018-02-02 21:20:48+00:00,,Conjunction_12,10,0,1,1600,0,1386.4120244979858
ADMIN-UCSF-BK008,2018-01-30 21:39:34+00:00,2018-02-02 21:20:48+00:00,,Conjunction_4,10,1,1,1000,0,773.2959985733032
ADMIN-UCSF-BK008,2018-01-30 21:39:34+00:00,2018-02-02 21:20:48+00:00,,Feature_12,10,0,1,790,0,707.2679996490479
ADMIN-UCSF-BK008,2018-01-30 21:39:34+00:00,2018-02-02 21:20:48+00:00,,Feature_4,10,0,0,520,1,634.1739892959595
ADMIN-UCSF-BK008,2018-01-30 21:39:34+00:00,2018-02-02 21:20:48+00:00,,Conjunction_12,11,1,1,1590,0,861.5289926528931
ADMIN-UCSF-BK008,2018-01-30 21:39:34+00:00,2018-02-02 21:20:48+00:00,,Conjunction_4,11,0,1,920,0,871.4430332183838
ADMIN-UCSF-BK008,2018-01-30 21:39:34+00:00,2018-02-02 21:20:48+00:00,,Feature_12,11,0,0,780,1,820.6599950790405
ADMIN-UCSF-BK008,2018-01-30 21:39:34+00:00,2018-02-02 21:20:48+00:00,,Feature_4,11,1,1,680,0,565.2810335159302
ADMIN-UCSF-BK008,2018-01-30 21:39:34+00:00,2018-02-02 21:20:48+00:00,,Conjunction_12,12,0,1,1580,0,900.8669853210449
ADMIN-UCSF-BK008,2018-01-30 21:39:34+00:00,2018-02-02 21:20:48+00:00,,Conjunction_4,12,1,0,760,1,927.6590347290039
ADMIN-UCSF-BK008,2018-01-30 21:39:34+00:00,2018-02-02 21:20:48+00:00,,Feature_12,12,0,1,820,0,643.1349515914917
ADMIN-UCSF-BK008,2018-01-30 21:39:34+00:00,2018-02-02 21:20:48+00:00,,Feature_4,12,0,1,670,0,568.9070224761963
ADMIN-UCSF-BK008,2018-01-30 21:39:34+00:00,2018-02-02 21:20:48+00:00,,Conjunction_12,13,1,1,1560,0,1349.0220308303833
ADMIN-UCSF-BK008,2018-01-30 21:39:34+00:00,2018-02-02 21:20:48+00:00,,Conjunction_4,13,0,1,800,0,613.2220029830933
ADMIN-UCSF-BK008,2018-01-30 21:39:34+00:00,2018-02-02 21:20:48+00:00,,Feature_12,13,1,1,810,0,576.233983039856
ADMIN-UCSF-BK008,2018-01-30 21:39:34+00:00,2018-02-02 21:20:48+00:00,,Feature_4,13,0,0,660,1,765.0660276412964
ADMIN-UCSF-BK008,2018-01-30 21:39:34+00:00,2018-02-02 21:20:48+00:00,,Conjunction_12,14,0,1,1520,0,834.4669342041016
ADMIN-UCSF-BK008,2018-01-30 21:39:34+00:00,2018-02-02 21:20:48+00:00,,Conjunction_4,14,1,1,790,0,746.6939687728882
ADMIN-UCSF-BK008,2018-01-30 21:39:34+00:00,2018-02-02 21:20:48+00:00,,Feature_12,14,0,1,800,0,779.7030210494995
ADMIN-UCSF-BK008,2018-01-30 21:39:34+00:00,2018-02-02 21:20:48+00:00,,Feature_4,14,0,0,700,1,780.9960842132568
ADMIN-UCSF-BK008,2018-01-30 21:39:34+00:00,2018-02-02 21:20:48+00:00,,Conjunction_12,15,1,1,1440,0,962.7339839935303
ADMIN-UCSF-BK008,2018-01-30 21:39:34+00:00,2018-02-02 21:20:48+00:00,,Conjunction_4,15,1,1,780,0,639.1479969024658
ADMIN-UCSF-BK008,2018-01-30 21:39:34+00:00,2018-02-02 21:20:48+00:00,,Feature_12,15,0,1,780,0,710.4570865631104
ADMIN-UCSF-BK008,2018-01-30 21:39:34+00:00,2018-02-02 21:20:48+00:00,,Feature_4,15,1,1,740,0,709.0380191802979
ADMIN-UCSF-BK008,2018-01-30 21:39:34+00:00,2018-02-02 21:20:48+00:00,,Conjunction_12,16,0,1,1280,0,660.9079837799072
ADMIN-UCSF-BK008,2018-01-30 21:39:34+00:00,2018-02-02 21:20:48+00:00,,Conjunction_4,16,0,0,760,1,1187.7549886703491
ADMIN-UCSF-BK008,2018-01-30 21:39:34+00:00,2018-02-02 21:20:48+00:00,,Feature_12,16,1,0,740,1,819.8599815368652
ADMIN-UCSF-BK008,2018-01-30 21:39:34+00:00,2018-02-02 21:20:48+00:00,,Feature_4,16,0,0,730,1,848.065972328186
ADMIN-UCSF-BK008,2018-01-30 21:39:34+00:00,2018-02-02 21:20:48+00:00,,Conjunction_12,17,0,0,960,1,1378.0150413513184
ADMIN-UCSF-BK008,2018-01-30 21:39:34+00:00,2018-02-02 21:20:48+00:00,,Conjunction_4,17,1,0,800,1,879.5340061187744
ADMIN-UCSF-BK008,2018-01-30 21:39:34+00:00,2018-02-02 21:20:48+00:00,,Feature_12,17,1,1,780,0,728.1839847564697
ADMIN-UCSF-BK008,2018-01-30 21:39:34+00:00,2018-02-02 21:20:48+00:00,,Feature_4,17,1,1,770,0,599.9350547790527
ADMIN-UCSF-BK008,2018-01-30 21:39:34+00:00,2018-02-02 21:20:48+00:00,,Conjunction_12,18,0,1,1000,0,941.5349960327148
ADMIN-UCSF-BK008,2018-01-30 21:39:34+00:00,2018-02-02 21:20:48+00:00,,Conjunction_4,18,0,0,840,1,1124.5660781860352
ADMIN-UCSF-BK008,2018-01-30 21:39:34+00:00,2018-02-02 21:20:48+00:00,,Feature_12,18,1,0,770,1,817.6119327545166
ADMIN-UCSF-BK008,2018-01-30 21:39:34+00:00,2018-02-02 21:20:48+00:00,,Feature_4,18,1,1,760,0,680.5050373077393
ADMIN-UCSF-BK008,2018-01-30 21:39:34+00:00,2018-02-02 21:20:48+00:00,,Conjunction_12,19,0,0,990,1,N/A
ADMIN-UCSF-BK008,2018-01-30 21:39:34+00:00,2018-02-02 21:20:48+00:00,,Conjunction_4,19,0,0,920,1,1195.223093032837
ADMIN-UCSF-BK008,2018-01-30 21:39:34+00:00,2018-02-02 21:20:48+00:00,,Feature_12,19,1,0,810,1,822.2700357437134
ADMIN-UCSF-BK008,2018-01-30 21:39:34+00:00,2018-02-02 21:20:48+00:00,,Feature_4,19,1,1,750,0,624.8350143432617
ADMIN-UCSF-BK008,2018-01-30 21:39:34+00:00,2018-02-02 21:20:48+00:00,,Conjunction_12,20,1,0,1030,1,1208.624005317688
ADMIN-UCSF-BK008,2018-01-30 21:39:34+00:00,2018-02-02 21:20:48+00:00,,Conjunction_4,20,0,1,1080,0,1060.6119632720947
ADMIN-UCSF-BK008,2018-01-30 21:39:34+00:00,2018-02-02 21:20:48+00:00,,Feature_12,20,0,1,850,0,729.8640012741089
ADMIN-UCSF-BK008,2018-01-30 21:39:34+00:00,2018-02-02 21:20:48+00:00,,Feature_4,20,1,0,730,1,730.0170660018921
ADMIN-UCSF-BK008,2018-01-30 21:39:34+00:00,2018-02-02 21:20:48+00:00,,Conjunction_12,21,0,0,1070,1,1172.8240251541138
ADMIN-UCSF-BK008,2018-01-30 21:39:34+00:00,2018-02-02 21:20:48+00:00,,Conjunction_4,21,1,1,1070,0,1041.5780544281006
ADMIN-UCSF-BK008,2018-01-30 21:39:34+00:00,2018-02-02 21:20:48+00:00,,Feature_12,21,0,1,840,0,767.6470279693604
ADMIN-UCSF-BK008,2018-01-30 21:39:34+00:00,2018-02-02 21:20:48+00:00,,Feature_4,21,1,1,770,0,588.8569355010986
ADMIN-UCSF-BK008,2018-01-30 21:39:34+00:00,2018-02-02 21:20:48+00:00,,Conjunction_12,22,1,1,1150,0,799.5710372924805
ADMIN-UCSF-BK008,2018-01-30 21:39:34+00:00,2018-02-02 21:20:48+00:00,,Conjunction_4,22,0,1,1060,0,1000.9109973907471
ADMIN-UCSF-BK008,2018-01-30 21:39:34+00:00,2018-02-02 21:20:48+00:00,,Feature_12,22,1,1,830,0,798.2689142227173
ADMIN-UCSF-BK008,2018-01-30 21:39:34+00:00,2018-02-02 21:20:48+00:00,,Feature_4,22,0,1,760,0,692.939043045044
ADMIN-UCSF-BK008,2018-01-30 21:39:34+00:00,2018-02-02 21:20:48+00:00,,Conjunction_12,23,1,1,1140,0,793.2469844818115
ADMIN-UCSF-BK008,2018-01-30 21:39:34+00:00,2018-02-02 21:20:48+00:00,,Conjunction_4,23,0,0,1040,1,1275.0880718231201
ADMIN-UCSF-BK008,2018-01-30 21:39:34+00:00,2018-02-02 21:20:48+00:00,,Feature_12,23,1,1,810,0,718.8490629196167
ADMIN-UCSF-BK008,2018-01-30 21:39:34+00:00,2018-02-02 21:20:48+00:00,,Feature_4,23,1,1,750,0,581.2039375305176
ADMIN-UCSF-BK008,2018-01-30 21:39:34+00:00,2018-02-02 21:20:48+00:00,,Conjunction_12,24,1,0,1130,0,1063.5240077972412
ADMIN-UCSF-BK008,2018-01-30 21:39:34+00:00,2018-02-02 21:20:48+00:00,,Conjunction_4,24,1,1,1080,0,937.1500015258789
ADMIN-UCSF-BK008,2018-01-30 21:39:34+00:00,2018-02-02 21:20:48+00:00,,Feature_12,24,1,1,770,0,721.2579250335693
ADMIN-UCSF-BK008,2018-01-30 21:39:34+00:00,2018-02-02 21:20:48+00:00,,Feature_4,24,0,0,730,1,735.8049154281616
ADMIN-UCSF-BK010,2018-01-30 22:05:40+00:00,2018-02-02 21:20:48+00:00,,Conjunction_4,0,1,1,1000,0,800.4459142684937
ADMIN-UCSF-BK010,2018-01-30 22:05:40+00:00,2018-02-02 21:20:48+00:00,,Feature_12,0,1,1,1000,0,463.81402015686035
ADMIN-UCSF-BK010,2018-01-30 22:05:40+00:00,2018-02-02 21:20:48+00:00,,Feature_4,0,1,0,1000,0,585.1719379425049
ADMIN-UCSF-BK010,2018-01-30 22:05:40+00:00,2018-02-02 21:20:48+00:00,,Conjunction_4,1,1,1,990,0,575.3690004348755
ADMIN-UCSF-BK010,2018-01-30 22:05:40+00:00,2018-02-02 21:20:48+00:00,,Feature_12,1,1,0,990,0,362.3889684677124
ADMIN-UCSF-BK010,2018-01-30 22:05:40+00:00,2018-02-02 21:20:48+00:00,,Feature_4,1,1,1,1040,0,436.5350008010864
ADMIN-UCSF-BK010,2018-01-30 22:05:40+00:00,2018-02-02 21:20:48+00:00,,Conjunction_4,2,0,0,980,1,N/A
ADMIN-UCSF-BK010,2018-01-30 22:05:40+00:00,2018-02-02 21:20:48+00:00,,Feature_12,2,0,0,1030,0,494.80199813842773
ADMIN-UCSF-BK010,2018-01-30 22:05:40+00:00,2018-02-02 21:20:48+00:00,,Feature_4,2,1,1,1030,0,545.1569557189941
ADMIN-UCSF-BK010,2018-01-30 22:05:40+00:00,2018-02-02 21:20:48+00:00,,Conjunction_4,3,1,0,1020,1,N/A
ADMIN-UCSF-BK010,2018-01-30 22:05:40+00:00,2018-02-02 21:20:48+00:00,,Feature_12,3,1,1,1070,0,495.93794345855713
ADMIN-UCSF-BK010,2018-01-30 22:05:40+00:00,2018-02-02 21:20:48+00:00,,Feature_4,3,0,0,1020,0,504.5720338821411
ADMIN-UCSF-BK010,2018-01-30 22:05:40+00:00,2018-02-02 21:20:48+00:00,,Feature_12,4,1,1,1060,0,710.30592918396
ADMIN-UCSF-BK010,2018-01-30 22:05:40+00:00,2018-02-02 21:20:48+00:00,,Feature_4,4,0,0,1060,0,481.01305961608887
ADMIN-UCSF-BK010,2018-01-30 22:05:40+00:00,2018-02-02 21:20:48+00:00,,Feature_12,5,1,0,1050,0,507.24899768829346
ADMIN-UCSF-BK010,2018-01-30 22:05:40+00:00,2018-02-02 21:20:48+00:00,,Feature_4,5,0,0,1100,0,668.8209772109985
ADMIN-UCSF-BK010,2018-01-30 22:05:40+00:00,2018-02-02 21:20:48+00:00,,Feature_12,6,0,1,1090,0,694.4169998168945
ADMIN-UCSF-BK010,2018-01-30 22:05:40+00:00,2018-02-02 21:20:48+00:00,,Feature_4,6,0,1,1180,0,557.6419830322266
ADMIN-UCSF-BK010,2018-01-30 22:05:40+00:00,2018-02-02 21:20:48+00:00,,Feature_12,7,1,0,1080,0,814.655065536499
ADMIN-UCSF-BK010,2018-01-30 22:05:40+00:00,2018-02-02 21:20:48+00:00,,Feature_4,7,1,1,1170,0,586.6990089416504
ADMIN-UCSF-BK010,2018-01-30 22:05:40+00:00,2018-02-02 21:20:48+00:00,,Feature_12,8,0,1,1120,0,464.419960975647
ADMIN-UCSF-BK010,2018-01-30 22:05:40+00:00,2018-02-02 21:20:48+00:00,,Feature_4,8,0,0,1160,0,496.7080354690552
ADMIN-UCSF-BK010,2018-01-30 22:05:40+00:00,2018-02-02 21:20:48+00:00,,Feature_12,9,0,0,1110,0,486.30595207214355
ADMIN-UCSF-BK010,2018-01-30 22:05:40+00:00,2018-02-02 21:20:48+00:00,,Feature_4,9,1,1,1200,0,734.9129915237427
ADMIN-UCSF-BK010,2018-01-30 22:05:40+00:00,2018-02-02 21:20:48+00:00,,Feature_12,10,1,1,1150,0,469.08390522003174
ADMIN-UCSF-BK010,2018-01-30 22:05:40+00:00,2018-02-02 21:20:48+00:00,,Feature_4,10,1,1,1190,0,609.1560125350952
ADMIN-UCSF-BK010,2018-01-30 22:05:40+00:00,2018-02-02 21:20:48+00:00,,Feature_12,11,0,0,1140,0,553.6190271377563
ADMIN-UCSF-BK010,2018-01-30 22:05:40+00:00,2018-02-02 21:20:48+00:00,,Feature_4,11,1,1,1180,0,483.63304138183594
ADMIN-UCSF-BK010,2018-01-30 22:05:40+00:00,2018-02-02 21:20:48+00:00,,Feature_12,12,1,1,1180,0,629.5509338378906
ADMIN-UCSF-BK010,2018-01-30 22:05:40+00:00,2018-02-02 21:20:48+00:00,,Feature_4,12,1,1,1160,0,520.6849575042725
ADMIN-UCSF-BK010,2018-01-30 22:05:40+00:00,2018-02-02 21:20:48+00:00,,Feature_12,13,1,0,1170,0,684.4459772109985
ADMIN-UCSF-BK010,2018-01-30 22:05:40+00:00,2018-02-02 21:20:48+00:00,,Feature_4,13,1,1,1120,0,525.4409313201904
ADMIN-UCSF-BK010,2018-01-30 22:05:40+00:00,2018-02-02 21:20:48+00:00,,Feature_12,14,0,1,1210,0,618.5649633407593
ADMIN-UCSF-BK010,2018-01-30 22:05:40+00:00,2018-02-02 21:20:48+00:00,,Feature_4,14,0,0,1040,0,548.6119985580444
ADMIN-UCSF-BK010,2018-01-30 22:05:40+00:00,2018-02-02 21:20:48+00:00,,Feature_12,15,1,0,1200,0,686.3360404968262
ADMIN-UCSF-BK010,2018-01-30 22:05:40+00:00,2018-02-02 21:20:48+00:00,,Feature_4,15,0,0,1080,0,581.5889835357666
ADMIN-UCSF-BK010,2018-01-30 22:05:40+00:00,2018-02-02 21:20:48+00:00,,Feature_12,16,0,1,1240,0,634.4950199127197
ADMIN-UCSF-BK010,2018-01-30 22:05:40+00:00,2018-02-02 21:20:48+00:00,,Feature_4,16,0,0,1120,0,588.0188941955566
ADMIN-UCSF-BK010,2018-01-30 22:05:40+00:00,2018-02-02 21:20:48+00:00,,Feature_12,17,1,1,1230,0,978.0340194702148
ADMIN-UCSF-BK010,2018-01-30 22:05:40+00:00,2018-02-02 21:20:48+00:00,,Feature_4,17,0,1,1200,0,490.57507514953613
ADMIN-UCSF-BK010,2018-01-30 22:05:40+00:00,2018-02-02 21:20:48+00:00,,Feature_12,18,0,0,1220,1,1229.3349504470825
ADMIN-UCSF-BK010,2018-01-30 22:05:40+00:00,2018-02-02 21:20:48+00:00,,Feature_4,18,0,0,1190,0,609.2849969863892
ADMIN-UCSF-BK010,2018-01-30 22:05:40+00:00,2018-02-02 21:20:48+00:00,,Feature_12,19,0,1,1260,0,807.6869249343872
ADMIN-UCSF-BK010,2018-01-30 22:05:40+00:00,2018-02-02 21:20:48+00:00,,Feature_4,19,1,1,1230,0,563.6570453643799
ADMIN-UCSF-BK010,2018-01-30 22:05:40+00:00,2018-02-02 21:20:48+00:00,,Feature_12,20,0,1,1250,0,853.050947189331
ADMIN-UCSF-BK010,2018-01-30 22:05:40+00:00,2018-02-02 21:20:48+00:00,,Feature_4,20,1,0,1220,0,650.3050327301025
ADMIN-UCSF-BK010,2018-01-30 22:05:40+00:00,2018-02-02 21:20:48+00:00,,Feature_12,21,1,1,1240,0,645.6300020217896
ADMIN-UCSF-BK010,2018-01-30 22:05:40+00:00,2018-02-02 21:20:48+00:00,,Feature_4,21,1,1,1260,0,515.3800249099731
ADMIN-UCSF-BK010,2018-01-30 22:05:40+00:00,2018-02-02 21:20:48+00:00,,Feature_12,22,0,1,1220,0,726.2870073318481
ADMIN-UCSF-BK010,2018-01-30 22:05:40+00:00,2018-02-02 21:20:48+00:00,,Feature_4,22,0,0,1250,0,714.6079540252686
ADMIN-UCSF-BK010,2018-01-30 22:05:40+00:00,2018-02-02 21:20:48+00:00,,Feature_12,23,1,1,1180,0,450.81889629364014
ADMIN-UCSF-BK010,2018-01-30 22:05:40+00:00,2018-02-02 21:20:48+00:00,,Feature_4,23,1,0,1290,0,553.8380146026611
ADMIN-UCSF-BK010,2018-01-30 22:05:40+00:00,2018-02-02 21:20:48+00:00,,Feature_12,24,0,1,1100,0,658.7039232254028
ADMIN-UCSF-BK010,2018-01-30 22:05:40+00:00,2018-02-02 21:20:48+00:00,,Feature_4,24,0,0,1330,0,414.50607776641846
ADMIN-UCSF-BK010,2018-01-30 22:08:33+00:00,2018-02-02 21:20:48+00:00,,Conjunction_12,0,1,0,1000,1,1070.6900358200073
ADMIN-UCSF-BK010,2018-01-30 22:08:33+00:00,2018-02-02 21:20:48+00:00,,Conjunction_4,0,0,1,1000,0,923.6979484558105
ADMIN-UCSF-BK010,2018-01-30 22:08:33+00:00,2018-02-02 21:20:48+00:00,,Feature_12,0,1,0,1000,1,1130.3809881210327
ADMIN-UCSF-BK010,2018-01-30 22:08:33+00:00,2018-02-02 21:20:48+00:00,,Feature_4,0,0,1,1000,0,556.075930595398
ADMIN-UCSF-BK010,2018-01-30 22:08:33+00:00,2018-02-02 21:20:48+00:00,,Conjunction_12,1,1,1,1040,0,975.1440286636353
ADMIN-UCSF-BK010,2018-01-30 22:08:33+00:00,2018-02-02 21:20:48+00:00,,Conjunction_4,1,1,1,990,0,916.9960021972656
ADMIN-UCSF-BK010,2018-01-30 22:08:33+00:00,2018-02-02 21:20:48+00:00,,Feature_12,1,1,1,1040,0,715.4079675674438
ADMIN-UCSF-BK010,2018-01-30 22:08:33+00:00,2018-02-02 21:20:48+00:00,,Feature_4,1,1,1,990,0,590.4229879379272
ADMIN-UCSF-BK010,2018-01-30 22:08:33+00:00,2018-02-02 21:20:48+00:00,,Conjunction_12,2,0,0,1030,1,1445.4659223556519
ADMIN-UCSF-BK010,2018-01-30 22:08:33+00:00,2018-02-02 21:20:48+00:00,,Conjunction_4,2,0,0,980,1,1278.5149812698364
ADMIN-UCSF-BK010,2018-01-30 22:08:33+00:00,2018-02-02 21:20:48+00:00,,Feature_12,2,0,1,1030,0,646.9649076461792
ADMIN-UCSF-BK010,2018-01-30 22:08:33+00:00,2018-02-02 21:20:48+00:00,,Feature_4,2,0,1,980,0,575.8570432662964
ADMIN-UCSF-BK010,2018-01-30 22:08:33+00:00,2018-02-02 21:20:48+00:00,,Conjunction_12,3,0,0,1070,1,1472.0770120620728
ADMIN-UCSF-BK010,2018-01-30 22:08:33+00:00,2018-02-02 21:20:48+00:00,,Conjunction_4,3,1,1,1020,0,768.1629657745361
ADMIN-UCSF-BK010,2018-01-30 22:08:33+00:00,2018-02-02 21:20:48+00:00,,Feature_12,3,0,1,1020,0,703.06396484375
ADMIN-UCSF-BK010,2018-01-30 22:08:33+00:00,2018-02-02 21:20:48+00:00,,Feature_4,3,1,1,960,0,432.94692039489746
ADMIN-UCSF-BK010,2018-01-30 22:08:33+00:00,2018-02-02 21:20:48+00:00,,Conjunction_12,4,0,0,1110,1,N/A
ADMIN-UCSF-BK010,2018-01-30 22:08:33+00:00,2018-02-02 21:20:48+00:00,,Conjunction_4,4,0,1,1010,0,783.4689617156982
ADMIN-UCSF-BK010,2018-01-30 22:08:33+00:00,2018-02-02 21:20:48+00:00,,Feature_12,4,1,1,1000,0,562.8739595413208
ADMIN-UCSF-BK010,2018-01-30 22:08:33+00:00,2018-02-02 21:20:48+00:00,,Feature_4,4,1,1,920,0,552.3120164871216
ADMIN-UCSF-BK010,2018-01-30 22:08:33+00:00,2018-02-02 21:20:48+00:00,,Conjunction_12,5,1,0,1190,1,1312.6009702682495
ADMIN-UCSF-BK010,2018-01-30 22:08:33+00:00,2018-02-02 21:20:48+00:00,,Conjunction_4,5,1,1,1000,0,797.8470325469971
ADMIN-UCSF-BK010,2018-01-30 22:08:33+00:00,2018-02-02 21:20:48+00:00,,Feature_12,5,1,0,960,1,1096.3929891586304
ADMIN-UCSF-BK010,2018-01-30 22:08:33+00:00,2018-02-02 21:20:48+00:00,,Feature_4,5,1,1,840,0,583.4749937057495
ADMIN-UCSF-BK010,2018-01-30 22:08:33+00:00,2018-02-02 21:20:48+00:00,,Conjunction_12,6,1,1,1350,0,1269.752025604248
ADMIN-UCSF-BK010,2018-01-30 22:08:33+00:00,2018-02-02 21:20:48+00:00,,Conjunction_4,6,0,1,980,0,878.3220052719116
ADMIN-UCSF-BK010,2018-01-30 22:08:33+00:00,2018-02-02 21:20:48+00:00,,Feature_12,6,0,1,1000,0,628.9719343185425
ADMIN-UCSF-BK010,2018-01-30 22:08:33+00:00,2018-02-02 21:20:48+00:00,,Feature_4,6,0,1,680,0,568.3630704879761
ADMIN-UCSF-BK010,2018-01-30 22:08:33+00:00,2018-02-02 21:20:48+00:00,,Conjunction_12,7,0,1,1340,0,1014.7730112075806
ADMIN-UCSF-BK010,2018-01-30 22:08:33+00:00,2018-02-02 21:20:48+00:00,,Conjunction_4,7,0,0,940,0,725.1930236816406
ADMIN-UCSF-BK010,2018-01-30 22:08:33+00:00,2018-02-02 21:20:48+00:00,,Feature_12,7,1,1,990,0,542.3170328140259
ADMIN-UCSF-BK010,2018-01-30 22:08:33+00:00,2018-02-02 21:20:48+00:00,,Feature_4,7,0,0,360,1,434.2679977416992
ADMIN-UCSF-BK010,2018-01-30 22:08:33+00:00,2018-02-02 21:20:48+00:00,,Conjunction_12,8,1,1,1330,0,874.9159574508667
ADMIN-UCSF-BK010,2018-01-30 22:08:33+00:00,2018-02-02 21:20:48+00:00,,Conjunction_4,8,0,1,980,0,700.3989219665527
ADMIN-UCSF-BK010,2018-01-30 22:08:33+00:00,2018-02-02 21:20:48+00:00,,Feature_12,8,0,1,980,0,620.4169988632202
ADMIN-UCSF-BK010,2018-01-30 22:08:33+00:00,2018-02-02 21:20:48+00:00,,Feature_4,8,1,0,400,1,533.5509777069092
ADMIN-UCSF-BK010,2018-01-30 22:08:33+00:00,2018-02-02 21:20:48+00:00,,Conjunction_12,9,1,1,1310,0,831.9740295410156
ADMIN-UCSF-BK010,2018-01-30 22:08:33+00:00,2018-02-02 21:20:48+00:00,,Conjunction_4,9,1,0,970,1,1117.9089546203613
ADMIN-UCSF-BK010,2018-01-30 22:08:33+00:00,2018-02-02 21:20:48+00:00,,Feature_12,9,1,1,960,0,555.182933807373
ADMIN-UCSF-BK010,2018-01-30 22:08:33+00:00,2018-02-02 21:20:48+00:00,,Feature_4,9,1,0,440,1,644.6539163589478
ADMIN-UCSF-BK010,2018-01-30 22:08:33+00:00,2018-02-02 21:20:48+00:00,,Conjunction_12,10,0,0,1270,1,1504.9999952316284
ADMIN-UCSF-BK010,2018-01-30 22:08:33+00:00,2018-02-02 21:20:48+00:00,,Conjunction_4,10,1,1,1010,0,807.1749210357666
ADMIN-UCSF-BK010,2018-01-30 22:08:33+00:00,2018-02-02 21:20:48+00:00,,Feature_12,10,0,1,920,0,750.715970993042
ADMIN-UCSF-BK010,2018-01-30 22:08:33+00:00,2018-02-02 21:20:48+00:00,,Feature_4,10,0,0,520,1,668.6930656433105
ADMIN-UCSF-BK010,2018-01-30 22:08:33+00:00,2018-02-02 21:20:48+00:00,,Conjunction_12,11,1,1,1310,0,698.1079578399658
ADMIN-UCSF-BK010,2018-01-30 22:08:33+00:00,2018-02-02 21:20:48+00:00,,Conjunction_4,11,0,1,1000,0,718.4981107711792
ADMIN-UCSF-BK010,2018-01-30 22:08:33+00:00,2018-02-02 21:20:48+00:00,,Feature_12,11,1,1,840,0,562.985897064209
ADMIN-UCSF-BK010,2018-01-30 22:08:33+00:00,2018-02-02 21:20:48+00:00,,Feature_4,11,1,1,680,0,490.57602882385254
ADMIN-UCSF-BK010,2018-01-30 22:08:33+00:00,2018-02-02 21:20:48+00:00,,Conjunction_12,12,1,0,1300,1,1497.8420734405518
ADMIN-UCSF-BK010,2018-01-30 22:08:33+00:00,2018-02-02 21:20:48+00:00,,Conjunction_4,12,1,0,990,1,1013.1409168243408
ADMIN-UCSF-BK010,2018-01-30 22:08:33+00:00,2018-02-02 21:20:48+00:00,,Feature_12,12,0,0,680,1,684.2250823974609
ADMIN-UCSF-BK010,2018-01-30 22:08:33+00:00,2018-02-02 21:20:48+00:00,,Feature_4,12,0,1,670,0,416.02909564971924
ADMIN-UCSF-BK010,2018-01-30 22:08:33+00:00,2018-02-02 21:20:48+00:00,,Conjunction_12,13,0,0,1340,1,N/A
ADMIN-UCSF-BK010,2018-01-30 22:08:33+00:00,2018-02-02 21:20:48+00:00,,Conjunction_4,13,1,1,1030,0,773.6959457397461
ADMIN-UCSF-BK010,2018-01-30 22:08:33+00:00,2018-02-02 21:20:48+00:00,,Feature_12,13,0,0,720,1,726.1849641799927
ADMIN-UCSF-BK010,2018-01-30 22:08:33+00:00,2018-02-02 21:20:48+00:00,,Feature_4,13,1,1,660,0,260.6790065765381
ADMIN-UCSF-BK010,2018-01-30 22:08:33+00:00,2018-02-02 21:20:48+00:00,,Conjunction_12,14,1,1,1380,0,1344.6379899978638
ADMIN-UCSF-BK010,2018-01-30 22:08:33+00:00,2018-02-02 21:20:48+00:00,,Conjunction_4,14,1,1,1020,0,648.021936416626
ADMIN-UCSF-BK010,2018-01-30 22:08:33+00:00,2018-02-02 21:20:48+00:00,,Feature_12,14,0,1,760,0,587.0450735092163
ADMIN-UCSF-BK010,2018-01-30 22:08:33+00:00,2018-02-02 21:20:48+00:00,,Feature_4,14,0,0,640,0,404.18004989624023
ADMIN-UCSF-BK010,2018-01-30 22:08:33+00:00,2018-02-02 21:20:48+00:00,,Conjunction_12,15,1,1,1370,0,990.0720119476318
ADMIN-UCSF-BK010,2018-01-30 22:08:33+00:00,2018-02-02 21:20:48+00:00,,Conjunction_4,15,0,1,1010,0,907.2710275650024
ADMIN-UCSF-BK010,2018-01-30 22:08:33+00:00,2018-02-02 21:20:48+00:00,,Feature_12,15,0,1,750,0,492.63298511505127
ADMIN-UCSF-BK010,2018-01-30 22:08:33+00:00,2018-02-02 21:20:48+00:00,,Feature_4,15,0,1,680,0,594.3440198898315
ADMIN-UCSF-BK010,2018-01-30 22:08:33+00:00,2018-02-02 21:20:48+00:00,,Conjunction_12,16,0,0,1360,1,N/A
ADMIN-UCSF-BK010,2018-01-30 22:08:33+00:00,2018-02-02 21:20:48+00:00,,Conjunction_4,16,0,1,990,0,986.9940280914307
ADMIN-UCSF-BK010,2018-01-30 22:08:33+00:00,2018-02-02 21:20:48+00:00,,Feature_12,16,1,1,740,0,710.6239795684814
ADMIN-UCSF-BK010,2018-01-30 22:08:33+00:00,2018-02-02 21:20:48+00:00,,Feature_4,16,0,0,670,1,702.2320032119751
ADMIN-UCSF-BK010,2018-01-30 22:08:33+00:00,2018-02-02 21:20:48+00:00,,Conjunction_12,17,0,0,1400,1,N/A
ADMIN-UCSF-BK010,2018-01-30 22:08:33+00:00,2018-02-02 21:20:48+00:00,,Conjunction_4,17,0,1,950,0,682.8359365463257
ADMIN-UCSF-BK010,2018-01-30 22:08:33+00:00,2018-02-02 21:20:48+00:00,,Feature_12,17,0,1,720,0,480.34393787384033
ADMIN-UCSF-BK010,2018-01-30 22:08:33+00:00,2018-02-02 21:20:48+00:00,,Feature_4,17,0,1,710,0,673.0760335922241
ADMIN-UCSF-BK010,2018-01-30 22:08:33+00:00,2018-02-02 21:20:48+00:00,,Conjunction_12,18,1,1,1440,0,1188.9150142669678
ADMIN-UCSF-BK010,2018-01-30 22:08:33+00:00,2018-02-02 21:20:48+00:00,,Conjunction_4,18,0,1,870,0,835.5439901351929
ADMIN-UCSF-BK010,2018-01-30 22:08:33+00:00,2018-02-02 21:20:48+00:00,,Feature_12,18,1,1,680,0,633.8200569152832
ADMIN-UCSF-BK010,2018-01-30 22:08:33+00:00,2018-02-02 21:20:48+00:00,,Feature_4,18,0,1,700,0,609.9029779434204
ADMIN-UCSF-BK010,2018-01-30 22:08:33+00:00,2018-02-02 21:20:48+00:00,,Conjunction_12,19,0,1,1430,0,995.9499835968018
ADMIN-UCSF-BK010,2018-01-30 22:08:33+00:00,2018-02-02 21:20:48+00:00,,Conjunction_4,19,1,1,710,0,611.4319562911987
ADMIN-UCSF-BK010,2018-01-30 22:08:33+00:00,2018-02-02 21:20:48+00:00,,Feature_12,19,0,1,600,0,484.1799736022949
ADMIN-UCSF-BK010,2018-01-30 22:08:33+00:00,2018-02-02 21:20:48+00:00,,Feature_4,19,1,0,690,1,909.5239639282227
ADMIN-UCSF-BK010,2018-01-30 22:08:33+00:00,2018-02-02 21:20:48+00:00,,Conjunction_12,20,0,1,1420,0,791.3080453872681
ADMIN-UCSF-BK010,2018-01-30 22:08:33+00:00,2018-02-02 21:20:48+00:00,,Conjunction_4,20,1,0,390,1,917.6440238952637
ADMIN-UCSF-BK010,2018-01-30 22:08:33+00:00,2018-02-02 21:20:48+00:00,,Feature_12,20,1,1,440,0,432.0249557495117
ADMIN-UCSF-BK010,2018-01-30 22:08:33+00:00,2018-02-02 21:20:48+00:00,,Feature_4,20,1,0,730,1,849.4371175765991
ADMIN-UCSF-BK010,2018-01-30 22:08:33+00:00,2018-02-02 21:20:48+00:00,,Conjunction_12,21,1,0,1400,0,602.1460294723511
ADMIN-UCSF-BK010,2018-01-30 22:08:33+00:00,2018-02-02 21:20:48+00:00,,Conjunction_4,21,1,0,430,1,1086.1960649490356
ADMIN-UCSF-BK010,2018-01-30 22:08:33+00:00,2018-02-02 21:20:48+00:00,,Feature_12,21,1,0,120,1,668.3570146560669
ADMIN-UCSF-BK010,2018-01-30 22:08:33+00:00,2018-02-02 21:20:48+00:00,,Feature_4,21,1,1,770,0,728.2979488372803
ADMIN-UCSF-BK010,2018-01-30 22:08:33+00:00,2018-02-02 21:20:48+00:00,,Conjunction_12,22,0,0,1440,0,820.3690052032471
ADMIN-UCSF-BK010,2018-01-30 22:08:33+00:00,2018-02-02 21:20:48+00:00,,Conjunction_4,22,1,0,470,1,740.5359745025635
ADMIN-UCSF-BK010,2018-01-30 22:08:33+00:00,2018-02-02 21:20:48+00:00,,Feature_12,22,0,0,160,1,468.89305114746094
ADMIN-UCSF-BK010,2018-01-30 22:08:33+00:00,2018-02-02 21:20:48+00:00,,Feature_4,22,1,0,760,1,1180.9499263763428
ADMIN-UCSF-BK010,2018-01-30 22:08:33+00:00,2018-02-02 21:20:48+00:00,,Conjunction_12,23,1,1,1480,0,834.5259428024292
ADMIN-UCSF-BK010,2018-01-30 22:08:33+00:00,2018-02-02 21:20:48+00:00,,Conjunction_4,23,0,0,550,1,854.4330596923828
ADMIN-UCSF-BK010,2018-01-30 22:08:33+00:00,2018-02-02 21:20:48+00:00,,Feature_12,23,1,0,200,1,469.07103061676025
ADMIN-UCSF-BK010,2018-01-30 22:08:33+00:00,2018-02-02 21:20:48+00:00,,Feature_4,23,0,1,800,0,733.2489490509033
ADMIN-UCSF-BK010,2018-01-30 22:08:33+00:00,2018-02-02 21:20:48+00:00,,Conjunction_12,24,0,1,1470,0,1015.3970718383789
ADMIN-UCSF-BK010,2018-01-30 22:08:33+00:00,2018-02-02 21:20:48+00:00,,Conjunction_4,24,1,0,710,1,1373.7280368804932
ADMIN-UCSF-BK010,2018-01-30 22:08:33+00:00,2018-02-02 21:20:48+00:00,,Feature_12,24,1,0,280,1,859.0199947357178
ADMIN-UCSF-BK010,2018-01-30 22:08:33+00:00,2018-02-02 21:20:48+00:00,,Feature_4,24,1,1,790,0,510.1720094680786
ADMIN-UCSF-BK009,2018-02-02 20:54:28+00:00,2018-02-08 17:29:42+00:00,,Conjunction_12,0,0,0,1000,1,1055.642008781433
ADMIN-UCSF-BK009,2018-02-02 20:54:28+00:00,2018-02-08 17:29:42+00:00,,Conjunction_4,0,0,1,1000,0,725.0080108642578
ADMIN-UCSF-BK009,2018-02-02 20:54:28+00:00,2018-02-08 17:29:42+00:00,,Feature_12,0,1,1,1000,0,920.4280376434326
ADMIN-UCSF-BK009,2018-02-02 20:54:28+00:00,2018-02-08 17:29:42+00:00,,Feature_4,0,0,1,1000,0,710.4649543762207
ADMIN-UCSF-BK009,2018-02-02 20:54:28+00:00,2018-02-08 17:29:42+00:00,,Conjunction_12,1,0,0,1040,1,1070.1590776443481
ADMIN-UCSF-BK009,2018-02-02 20:54:28+00:00,2018-02-08 17:29:42+00:00,,Conjunction_4,1,1,1,990,0,732.0129871368408
ADMIN-UCSF-BK009,2018-02-02 20:54:28+00:00,2018-02-08 17:29:42+00:00,,Feature_12,1,0,1,990,0,856.0259342193604
ADMIN-UCSF-BK009,2018-02-02 20:54:28+00:00,2018-02-08 17:29:42+00:00,,Feature_4,1,0,0,990,0,916.3110256195068
ADMIN-UCSF-BK009,2018-02-02 20:54:28+00:00,2018-02-08 17:29:42+00:00,,Conjunction_12,2,1,0,1080,1,N/A
ADMIN-UCSF-BK009,2018-02-02 20:54:28+00:00,2018-02-08 17:29:42+00:00,,Conjunction_4,2,1,1,980,0,633.3240270614624
ADMIN-UCSF-BK009,2018-02-02 20:54:28+00:00,2018-02-08 17:29:42+00:00,,Feature_12,2,0,1,980,0,773.0579376220703
ADMIN-UCSF-BK009,2018-02-02 20:54:28+00:00,2018-02-08 17:29:42+00:00,,Feature_4,2,1,1,1030,0,725.7488965988159
ADMIN-UCSF-BK009,2018-02-02 20:54:28+00:00,2018-02-08 17:29:42+00:00,,Conjunction_12,3,1,1,1160,0,909.0770483016968
ADMIN-UCSF-BK009,2018-02-02 20:54:28+00:00,2018-02-08 17:29:42+00:00,,Conjunction_4,3,0,0,960,1,977.7489900588989
ADMIN-UCSF-BK009,2018-02-02 20:54:28+00:00,2018-02-08 17:29:42+00:00,,Feature_12,3,1,1,960,0,745.2079057693481
ADMIN-UCSF-BK009,2018-02-02 20:54:28+00:00,2018-02-08 17:29:42+00:00,,Feature_4,3,1,0,1020,1,1046.4849472045898
ADMIN-UCSF-BK009,2018-02-02 20:54:28+00:00,2018-02-08 17:29:42+00:00,,Conjunction_12,4,0,0,1150,1,N/A
ADMIN-UCSF-BK009,2018-02-02 20:54:28+00:00,2018-02-08 17:29:42+00:00,,Conjunction_4,4,0,1,1000,0,888.8280391693115
ADMIN-UCSF-BK009,2018-02-02 20:54:28+00:00,2018-02-08 17:29:42+00:00,,Feature_12,4,0,1,920,0,494.16208267211914
ADMIN-UCSF-BK009,2018-02-02 20:54:28+00:00,2018-02-08 17:29:42+00:00,,Feature_4,4,1,1,1060,0,754.62806224823
ADMIN-UCSF-BK009,2018-02-02 20:54:28+00:00,2018-02-08 17:29:42+00:00,,Conjunction_12,5,0,1,1190,0,989.3360137939453
ADMIN-UCSF-BK009,2018-02-02 20:54:28+00:00,2018-02-08 17:29:42+00:00,,Conjunction_4,5,0,1,990,0,903.4510850906372
ADMIN-UCSF-BK009,2018-02-02 20:54:28+00:00,2018-02-08 17:29:42+00:00,,Feature_12,5,1,1,840,0,651.1430740356445
ADMIN-UCSF-BK009,2018-02-02 20:54:28+00:00,2018-02-08 17:29:42+00:00,,Feature_4,5,0,1,1050,0,718.316912651062
ADMIN-UCSF-BK009,2018-02-02 20:54:28+00:00,2018-02-08 17:29:42+00:00,,Conjunction_12,6,1,0,1180,1,1402.758002281189
ADMIN-UCSF-BK009,2018-02-02 20:54:28+00:00,2018-02-08 17:29:42+00:00,,Conjunction_4,6,0,1,980,0,732.7209711074829
ADMIN-UCSF-BK009,2018-02-02 20:54:28+00:00,2018-02-08 17:29:42+00:00,,Feature_12,6,1,0,680,1,766.9730186462402
ADMIN-UCSF-BK009,2018-02-02 20:54:28+00:00,2018-02-08 17:29:42+00:00,,Feature_4,6,0,1,1040,0,666.6899919509888
ADMIN-UCSF-BK009,2018-02-02 20:54:28+00:00,2018-02-08 17:29:42+00:00,,Conjunction_12,7,1,1,1220,0,807.494044303894
ADMIN-UCSF-BK009,2018-02-02 20:54:28+00:00,2018-02-08 17:29:42+00:00,,Conjunction_4,7,1,1,960,0,845.0789451599121
ADMIN-UCSF-BK009,2018-02-02 20:54:28+00:00,2018-02-08 17:29:42+00:00,,Feature_12,7,0,1,720,0,715.4500484466553
ADMIN-UCSF-BK009,2018-02-02 20:54:28+00:00,2018-02-08 17:29:42+00:00,,Feature_4,7,1,1,1020,0,701.0250091552734
ADMIN-UCSF-BK009,2018-02-02 20:54:28+00:00,2018-02-08 17:29:42+00:00,,Conjunction_12,8,1,0,1210,0,1041.443943977356
ADMIN-UCSF-BK009,2018-02-02 20:54:28+00:00,2018-02-08 17:29:42+00:00,,Conjunction_4,8,1,1,920,0,622.635006904602
ADMIN-UCSF-BK009,2018-02-02 20:54:28+00:00,2018-02-08 17:29:42+00:00,,Feature_12,8,1,1,710,0,526.0510444641113
ADMIN-UCSF-BK009,2018-02-02 20:54:28+00:00,2018-02-08 17:29:42+00:00,,Feature_4,8,1,0,980,1,1053.6969900131226
ADMIN-UCSF-BK009,2018-02-02 20:54:28+00:00,2018-02-08 17:29:42+00:00,,Conjunction_12,9,1,0,1250,1,N/A
ADMIN-UCSF-BK009,2018-02-02 20:54:28+00:00,2018-02-08 17:29:42+00:00,,Conjunction_4,9,0,0,840,1,852.0780801773071
ADMIN-UCSF-BK009,2018-02-02 20:54:28+00:00,2018-02-08 17:29:42+00:00,,Feature_12,9,0,1,700,0,584.0450525283813
ADMIN-UCSF-BK009,2018-02-02 20:54:28+00:00,2018-02-08 17:29:42+00:00,,Feature_4,9,0,1,1020,0,704.7759294509888
ADMIN-UCSF-BK009,2018-02-02 20:54:28+00:00,2018-02-08 17:29:42+00:00,,Conjunction_12,10,0,1,1290,0,1276.2110233306885
ADMIN-UCSF-BK009,2018-02-02 20:54:28+00:00,2018-02-08 17:29:42+00:00,,Conjunction_4,10,1,1,880,0,698.138952255249
ADMIN-UCSF-BK009,2018-02-02 20:54:28+00:00,2018-02-08 17:29:42+00:00,,Feature_12,10,1,0,680,1,1059.128999710083
ADMIN-UCSF-BK009,2018-02-02 20:54:28+00:00,2018-02-08 17:29:42+00:00,,Feature_4,10,1,1,1010,0,659.7549915313721
ADMIN-UCSF-BK009,2018-02-02 20:54:28+00:00,2018-02-08 17:29:42+00:00,,Conjunction_12,11,0,0,1280,1,N/A
ADMIN-UCSF-BK009,2018-02-02 20:54:28+00:00,2018-02-08 17:29:42+00:00,,Conjunction_4,11,0,1,870,0,750.236988067627
ADMIN-UCSF-BK009,2018-02-02 20:54:28+00:00,2018-02-08 17:29:42+00:00,,Feature_12,11,1,0,720,1,895.4119682312012
ADMIN-UCSF-BK009,2018-02-02 20:54:28+00:00,2018-02-08 17:29:42+00:00,,Feature_4,11,1,0,1000,1,1465.411901473999
ADMIN-UCSF-BK009,2018-02-02 20:54:28+00:00,2018-02-08 17:29:42+00:00,,Conjunction_12,12,0,1,1320,0,1113.434076309204
ADMIN-UCSF-BK009,2018-02-02 20:54:28+00:00,2018-02-08 17:29:42+00:00,,Conjunction_4,12,1,1,860,0,730.0009727478027
ADMIN-UCSF-BK009,2018-02-02 20:54:28+00:00,2018-02-08 17:29:42+00:00,,Feature_12,12,0,1,760,0,681.1161041259766
ADMIN-UCSF-BK009,2018-02-02 20:54:28+00:00,2018-02-08 17:29:42+00:00,,Feature_4,12,1,0,1040,1,1233.3290576934814
ADMIN-UCSF-BK009,2018-02-02 20:54:28+00:00,2018-02-08 17:29:42+00:00,,Conjunction_12,13,1,1,1310,0,1037.3810529708862
ADMIN-UCSF-BK009,2018-02-02 20:54:28+00:00,2018-02-08 17:29:42+00:00,,Conjunction_4,13,0,1,840,0,669.2240238189697
ADMIN-UCSF-BK009,2018-02-02 20:54:28+00:00,2018-02-08 17:29:42+00:00,,Feature_12,13,0,1,750,0,693.4069395065308
ADMIN-UCSF-BK009,2018-02-02 20:54:28+00:00,2018-02-08 17:29:42+00:00,,Feature_4,13,0,0,1080,1,1423.1319427490234
ADMIN-UCSF-BK009,2018-02-02 20:54:28+00:00,2018-02-08 17:29:42+00:00,,Conjunction_12,14,0,1,1300,0,616.3710355758667
ADMIN-UCSF-BK009,2018-02-02 20:54:28+00:00,2018-02-08 17:29:42+00:00,,Conjunction_4,14,1,0,800,1,898.3249664306641
ADMIN-UCSF-BK009,2018-02-02 20:54:28+00:00,2018-02-08 17:29:42+00:00,,Feature_12,14,1,1,740,0,618.5989379882812
ADMIN-UCSF-BK009,2018-02-02 20:54:28+00:00,2018-02-08 17:29:42+00:00,,Feature_4,14,1,1,1160,0,747.1820116043091
ADMIN-UCSF-BK009,2018-02-02 20:54:28+00:00,2018-02-08 17:29:42+00:00,,Conjunction_12,15,1,1,1280,0,808.413028717041
ADMIN-UCSF-BK009,2018-02-02 20:54:28+00:00,2018-02-08 17:29:42+00:00,,Conjunction_4,15,0,1,840,0,761.4610195159912
ADMIN-UCSF-BK009,2018-02-02 20:54:28+00:00,2018-02-08 17:29:42+00:00,,Feature_12,15,0,0,720,1,759.4969272613525
ADMIN-UCSF-BK009,2018-02-02 20:54:28+00:00,2018-02-08 17:29:42+00:00,,Feature_4,15,0,1,1150,0,1071.6649293899536
ADMIN-UCSF-BK009,2018-02-02 20:54:28+00:00,2018-02-08 17:29:42+00:00,,Conjunction_12,16,0,1,1240,0,1011.0589265823364
ADMIN-UCSF-BK009,2018-02-02 20:54:28+00:00,2018-02-08 17:29:42+00:00,,Conjunction_4,16,1,1,830,0,779.5159816741943
ADMIN-UCSF-BK009,2018-02-02 20:54:28+00:00,2018-02-08 17:29:42+00:00,,Feature_12,16,1,0,760,1,861.1830472946167
ADMIN-UCSF-BK009,2018-02-02 20:54:28+00:00,2018-02-08 17:29:42+00:00,,Feature_4,16,0,1,1140,0,740.0870323181152
ADMIN-UCSF-BK009,2018-02-02 20:54:28+00:00,2018-02-08 17:29:42+00:00,,Conjunction_12,17,0,0,1160,1,1209.5739841461182
ADMIN-UCSF-BK009,2018-02-02 20:54:28+00:00,2018-02-08 17:29:42+00:00,,Conjunction_4,17,1,0,820,1,826.9820213317871
ADMIN-UCSF-BK009,2018-02-02 20:54:28+00:00,2018-02-08 17:29:42+00:00,,Feature_12,17,1,0,800,1,810.1400136947632
ADMIN-UCSF-BK009,2018-02-02 20:54:28+00:00,2018-02-08 17:29:42+00:00,,Feature_4,17,0,0,1120,0,842.7920341491699
ADMIN-UCSF-BK009,2018-02-02 20:54:28+00:00,2018-02-08 17:29:42+00:00,,Conjunction_12,18,1,0,1200,1,N/A
ADMIN-UCSF-BK009,2018-02-02 20:54:28+00:00,2018-02-08 17:29:42+00:00,,Conjunction_4,18,1,1,860,0,671.2080240249634
ADMIN-UCSF-BK009,2018-02-02 20:54:28+00:00,2018-02-08 17:29:42+00:00,,Feature_12,18,1,1,880,0,651.0540246963501
ADMIN-UCSF-BK009,2018-02-02 20:54:28+00:00,2018-02-08 17:29:42+00:00,,Feature_4,18,0,1,1160,0,765.0489807128906
ADMIN-UCSF-BK009,2018-02-02 20:54:28+00:00,2018-02-08 17:29:42+00:00,,Conjunction_12,19,0,0,1240,1,N/A
ADMIN-UCSF-BK009,2018-02-02 20:54:28+00:00,2018-02-08 17:29:42+00:00,,Conjunction_4,19,1,1,850,0,819.6609020233154
ADMIN-UCSF-BK009,2018-02-02 20:54:28+00:00,2018-02-08 17:29:42+00:00,,Feature_12,19,0,1,870,0,711.7029428482056
ADMIN-UCSF-BK009,2018-02-02 20:54:28+00:00,2018-02-08 17:29:42+00:00,,Feature_4,19,1,1,1150,0,764.382004737854
ADMIN-UCSF-BK009,2018-02-02 20:54:28+00:00,2018-02-08 17:29:42+00:00,,Conjunction_12,20,1,1,1320,0,853.240966796875
ADMIN-UCSF-BK009,2018-02-02 20:54:28+00:00,2018-02-08 17:29:42+00:00,,Conjunction_4,20,1,0,840,1,1245.4489469528198
ADMIN-UCSF-BK009,2018-02-02 20:54:28+00:00,2018-02-08 17:29:42+00:00,,Feature_12,20,0,0,860,1,942.9769515991211
ADMIN-UCSF-BK009,2018-02-02 20:54:28+00:00,2018-02-08 17:29:42+00:00,,Feature_4,20,1,1,1140,0,887.9419565200806
ADMIN-UCSF-BK009,2018-02-02 20:54:28+00:00,2018-02-08 17:29:42+00:00,,Conjunction_12,21,1,0,1310,0,1254.7290325164795
ADMIN-UCSF-BK009,2018-02-02 20:54:28+00:00,2018-02-08 17:29:42+00:00,,Conjunction_4,21,0,1,880,0,777.4990797042847
ADMIN-UCSF-BK009,2018-02-02 20:54:28+00:00,2018-02-08 17:29:42+00:00,,Feature_12,21,0,0,900,1,1064.5909309387207
ADMIN-UCSF-BK009,2018-02-02 20:54:28+00:00,2018-02-08 17:29:42+00:00,,Feature_4,21,1,1,1120,0,877.5479793548584
ADMIN-UCSF-BK009,2018-02-02 20:54:28+00:00,2018-02-08 17:29:42+00:00,,Conjunction_12,22,1,1,1350,0,736.7110252380371
ADMIN-UCSF-BK009,2018-02-02 20:54:28+00:00,2018-02-08 17:29:42+00:00,,Conjunction_4,22,0,0,870,1,941.601037979126
ADMIN-UCSF-BK009,2018-02-02 20:54:28+00:00,2018-02-08 17:29:42+00:00,,Feature_12,22,0,1,940,0,734.6019744873047
ADMIN-UCSF-BK009,2018-02-02 20:54:28+00:00,2018-02-08 17:29:42+00:00,,Feature_4,22,0,1,1080,0,924.1260290145874
ADMIN-UCSF-BK009,2018-02-02 20:54:28+00:00,2018-02-08 17:29:42+00:00,,Conjunction_12,23,1,0,1340,1,N/A
ADMIN-UCSF-BK009,2018-02-02 20:54:28+00:00,2018-02-08 17:29:42+00:00,,Conjunction_4,23,1,1,910,0,820.7509517669678
ADMIN-UCSF-BK009,2018-02-02 20:54:28+00:00,2018-02-08 17:29:42+00:00,,Feature_12,23,1,1,930,0,861.7810010910034
ADMIN-UCSF-BK009,2018-02-02 20:54:28+00:00,2018-02-08 17:29:42+00:00,,Feature_4,23,1,0,1000,1,1006.2199831008911
ADMIN-UCSF-BK009,2018-02-02 20:54:28+00:00,2018-02-08 17:29:42+00:00,,Conjunction_12,24,0,1,1380,0,813.0120038986206
ADMIN-UCSF-BK009,2018-02-02 20:54:28+00:00,2018-02-08 17:29:42+00:00,,Conjunction_4,24,0,1,900,0,777.541995048523
ADMIN-UCSF-BK009,2018-02-02 20:54:28+00:00,2018-02-08 17:29:42+00:00,,Feature_12,24,1,1,920,0,780.858039855957
ADMIN-UCSF-BK009,2018-02-02 20:54:28+00:00,2018-02-08 17:29:42+00:00,,Feature_4,24,0,1,1040,0,784.850001335144
ADMIN-UCSF-BK014,2018-02-02 22:04:12+00:00,2018-02-08 17:29:42+00:00,,Conjunction_12,0,1,0,1000,1,N/A
ADMIN-UCSF-BK014,2018-02-02 22:04:12+00:00,2018-02-08 17:29:42+00:00,,Conjunction_4,0,1,1,1000,0,947.0890760421753
ADMIN-UCSF-BK014,2018-02-02 22:04:12+00:00,2018-02-08 17:29:42+00:00,,Feature_12,0,0,1,1000,0,628.8939714431763
ADMIN-UCSF-BK014,2018-02-02 22:04:12+00:00,2018-02-08 17:29:42+00:00,,Feature_4,0,0,1,1000,0,707.7839374542236
ADMIN-UCSF-BK014,2018-02-02 22:04:12+00:00,2018-02-08 17:29:42+00:00,,Conjunction_12,1,0,0,1040,1,1369.8519468307495
ADMIN-UCSF-BK014,2018-02-02 22:04:12+00:00,2018-02-08 17:29:42+00:00,,Conjunction_4,1,1,0,990,1,1200.8830308914185
ADMIN-UCSF-BK014,2018-02-02 22:04:12+00:00,2018-02-08 17:29:42+00:00,,Feature_12,1,0,1,990,0,953.747034072876
ADMIN-UCSF-BK014,2018-02-02 22:04:12+00:00,2018-02-08 17:29:42+00:00,,Feature_4,1,1,1,990,0,700.4170417785645
ADMIN-UCSF-BK014,2018-02-02 22:04:12+00:00,2018-02-08 17:29:42+00:00,,Conjunction_12,2,1,0,1080,1,N/A
ADMIN-UCSF-BK014,2018-02-02 22:04:12+00:00,2018-02-08 17:29:42+00:00,,Conjunction_4,2,0,0,1030,1,1143.4450149536133
ADMIN-UCSF-BK014,2018-02-02 22:04:12+00:00,2018-02-08 17:29:42+00:00,,Feature_12,2,1,1,980,0,790.0540828704834
ADMIN-UCSF-BK014,2018-02-02 22:04:12+00:00,2018-02-08 17:29:42+00:00,,Feature_4,2,1,0,980,0,643.6280012130737
ADMIN-UCSF-BK014,2018-02-02 22:04:12+00:00,2018-02-08 17:29:42+00:00,,Conjunction_12,3,1,0,1160,1,N/A
ADMIN-UCSF-BK014,2018-02-02 22:04:12+00:00,2018-02-08 17:29:42+00:00,,Conjunction_4,3,0,0,1070,1,1147.744059562683
ADMIN-UCSF-BK014,2018-02-02 22:04:12+00:00,2018-02-08 17:29:42+00:00,,Feature_12,3,1,1,960,0,759.6549987792969
ADMIN-UCSF-BK014,2018-02-02 22:04:12+00:00,2018-02-08 17:29:42+00:00,,Feature_4,3,1,1,1020,0,776.4090299606323
ADMIN-UCSF-BK014,2018-02-02 22:04:12+00:00,2018-02-08 17:29:42+00:00,,Conjunction_12,4,1,0,1320,1,1504.0889978408813
ADMIN-UCSF-BK014,2018-02-02 22:04:12+00:00,2018-02-08 17:29:42+00:00,,Conjunction_4,4,0,1,1150,0,978.0019521713257
ADMIN-UCSF-BK014,2018-02-02 22:04:12+00:00,2018-02-08 17:29:42+00:00,,Feature_12,4,0,1,920,0,553.2069206237793
ADMIN-UCSF-BK014,2018-02-02 22:04:12+00:00,2018-02-08 17:29:42+00:00,,Feature_4,4,0,0,1010,0,536.1989736557007
ADMIN-UCSF-BK014,2018-02-02 22:04:12+00:00,2018-02-08 17:29:42+00:00,,Conjunction_12,5,0,1,1640,0,1026.4949798583984
ADMIN-UCSF-BK014,2018-02-02 22:04:12+00:00,2018-02-08 17:29:42+00:00,,Conjunction_4,5,0,0,1140,0,914.6029949188232
ADMIN-UCSF-BK014,2018-02-02 22:04:12+00:00,2018-02-08 17:29:42+00:00,,Feature_12,5,1,1,840,0,692.4139261245728
ADMIN-UCSF-BK014,2018-02-02 22:04:12+00:00,2018-02-08 17:29:42+00:00,,Feature_4,5,1,1,1050,0,560.062050819397
ADMIN-UCSF-BK014,2018-02-02 22:04:12+00:00,2018-02-08 17:29:42+00:00,,Conjunction_12,6,1,1,1630,0,1621.9990253448486
ADMIN-UCSF-BK014,2018-02-02 22:04:12+00:00,2018-02-08 17:29:42+00:00,,Conjunction_4,6,0,1,1180,0,731.9400310516357
ADMIN-UCSF-BK014,2018-02-02 22:04:12+00:00,2018-02-08 17:29:42+00:00,,Feature_12,6,0,1,680,0,600.0540256500244
ADMIN-UCSF-BK014,2018-02-02 22:04:12+00:00,2018-02-08 17:29:42+00:00,,Feature_4,6,0,1,1040,0,625.7009506225586
ADMIN-UCSF-BK014,2018-02-02 22:04:12+00:00,2018-02-08 17:29:42+00:00,,Conjunction_12,7,1,0,1620,0,1559.1950416564941
ADMIN-UCSF-BK014,2018-02-02 22:04:12+00:00,2018-02-08 17:29:42+00:00,,Conjunction_4,7,1,1,1170,0,978.8990020751953
ADMIN-UCSF-BK014,2018-02-02 22:04:12+00:00,2018-02-08 17:29:42+00:00,,Feature_12,7,0,0,360,1,665.8499240875244
ADMIN-UCSF-BK014,2018-02-02 22:04:12+00:00,2018-02-08 17:29:42+00:00,,Feature_4,7,0,1,1030,0,694.8460340499878
ADMIN-UCSF-BK014,2018-02-02 22:04:12+00:00,2018-02-08 17:29:42+00:00,,Conjunction_12,8,0,1,1660,0,1457.1210145950317
ADMIN-UCSF-BK014,2018-02-02 22:04:12+00:00,2018-02-08 17:29:42+00:00,,Conjunction_4,8,1,1,1160,0,1130.911946296692
ADMIN-UCSF-BK014,2018-02-02 22:04:12+00:00,2018-02-08 17:29:42+00:00,,Feature_12,8,0,0,400,1,760.735034942627
ADMIN-UCSF-BK014,2018-02-02 22:04:12+00:00,2018-02-08 17:29:42+00:00,,Feature_4,8,1,1,1010,0,619.1219091415405
ADMIN-UCSF-BK014,2018-02-02 22:04:12+00:00,2018-02-08 17:29:42+00:00,,Conjunction_12,9,1,1,1650,0,1108.1290245056152
ADMIN-UCSF-BK014,2018-02-02 22:04:12+00:00,2018-02-08 17:29:42+00:00,,Conjunction_4,9,1,1,1140,0,913.9400720596313
ADMIN-UCSF-BK014,2018-02-02 22:04:12+00:00,2018-02-08 17:29:42+00:00,,Feature_12,9,0,0,440,1,721.9500541687012
ADMIN-UCSF-BK014,2018-02-02 22:04:12+00:00,2018-02-08 17:29:42+00:00,,Feature_4,9,1,1,970,0,554.6549558639526
ADMIN-UCSF-BK014,2018-02-02 22:04:12+00:00,2018-02-08 17:29:42+00:00,,Conjunction_12,10,1,0,1640,0,1424.569010734558
ADMIN-UCSF-BK014,2018-02-02 22:04:12+00:00,2018-02-08 17:29:42+00:00,,Conjunction_4,10,1,0,1100,0,1079.4470310211182
ADMIN-UCSF-BK014,2018-02-02 22:04:12+00:00,2018-02-08 17:29:42+00:00,,Feature_12,10,1,0,520,1,662.086009979248
ADMIN-UCSF-BK014,2018-02-02 22:04:12+00:00,2018-02-08 17:29:42+00:00,,Feature_4,10,0,1,890,0,616.6260242462158
ADMIN-UCSF-BK014,2018-02-02 22:04:12+00:00,2018-02-08 17:29:42+00:00,,Conjunction_12,11,0,0,1680,0,N/A
ADMIN-UCSF-BK014,2018-02-02 22:04:12+00:00,2018-02-08 17:29:42+00:00,,Conjunction_4,11,1,1,1140,0,728.302001953125
ADMIN-UCSF-BK014,2018-02-02 22:04:12+00:00,2018-02-08 17:29:42+00:00,,Feature_12,11,1,0,680,1,956.8790197372437
ADMIN-UCSF-BK014,2018-02-02 22:04:12+00:00,2018-02-08 17:29:42+00:00,,Feature_4,11,0,0,730,1,1091.1169052124023
ADMIN-UCSF-BK014,2018-02-02 22:04:12+00:00,2018-02-08 17:29:42+00:00,,Conjunction_12,12,0,1,1720,0,1350.4359722137451
ADMIN-UCSF-BK014,2018-02-02 22:04:12+00:00,2018-02-08 17:29:42+00:00,,Conjunction_4,12,0,1,1130,0,984.6930503845215
ADMIN-UCSF-BK014,2018-02-02 22:04:12+00:00,2018-02-08 17:29:42+00:00,,Feature_12,12,0,0,1000,0,760.0239515304565
ADMIN-UCSF-BK014,2018-02-02 22:04:12+00:00,2018-02-08 17:29:42+00:00,,Feature_4,12,0,1,770,0,630.6580305099487
ADMIN-UCSF-BK014,2018-02-02 22:04:12+00:00,2018-02-08 17:29:42+00:00,,Conjunction_12,13,0,0,1710,1,N/A
ADMIN-UCSF-BK014,2018-02-02 22:04:12+00:00,2018-02-08 17:29:42+00:00,,Conjunction_4,13,0,0,1120,1,1426.9479513168335
ADMIN-UCSF-BK014,2018-02-02 22:04:12+00:00,2018-02-08 17:29:42+00:00,,Feature_12,13,1,1,1640,0,735.7169389724731
ADMIN-UCSF-BK014,2018-02-02 22:04:12+00:00,2018-02-08 17:29:42+00:00,,Feature_4,13,1,1,760,0,586.0430002212524
ADMIN-UCSF-BK014,2018-02-02 22:04:12+00:00,2018-02-08 17:29:42+00:00,,Conjunction_12,14,0,1,1750,0,1192.8659677505493
ADMIN-UCSF-BK014,2018-02-02 22:04:12+00:00,2018-02-08 17:29:42+00:00,,Conjunction_4,14,0,1,1160,0,834.7688913345337
ADMIN-UCSF-BK014,2018-02-02 22:04:12+00:00,2018-02-08 17:29:42+00:00,,Feature_12,14,1,1,1630,0,601.0550260543823
ADMIN-UCSF-BK014,2018-02-02 22:04:12+00:00,2018-02-08 17:29:42+00:00,,Feature_4,14,1,1,750,0,582.1110010147095
ADMIN-UCSF-BK014,2018-02-02 22:04:12+00:00,2018-02-08 17:29:42+00:00,,Conjunction_12,15,0,1,1740,0,1552.2809028625488
ADMIN-UCSF-BK014,2018-02-02 22:04:12+00:00,2018-02-08 17:29:42+00:00,,Conjunction_4,15,0,0,1150,1,1396.888017654419
ADMIN-UCSF-BK014,2018-02-02 22:04:12+00:00,2018-02-08 17:29:42+00:00,,Feature_12,15,1,1,1620,0,651.4790058135986
ADMIN-UCSF-BK014,2018-02-02 22:04:12+00:00,2018-02-08 17:29:42+00:00,,Feature_4,15,1,1,730,0,597.2310304641724
ADMIN-UCSF-BK014,2018-02-02 22:04:12+00:00,2018-02-08 17:29:42+00:00,,Conjunction_12,16,1,0,1730,1,N/A
ADMIN-UCSF-BK014,2018-02-02 22:04:12+00:00,2018-02-08 17:29:42+00:00,,Conjunction_4,16,1,1,1190,0,952.9770612716675
ADMIN-UCSF-BK014,2018-02-02 22:04:12+00:00,2018-02-08 17:29:42+00:00,,Feature_12,16,0,1,1600,0,892.7860260009766
ADMIN-UCSF-BK014,2018-02-02 22:04:12+00:00,2018-02-08 17:29:42+00:00,,Feature_4,16,1,0,690,0,525.4069566726685
ADMIN-UCSF-BK014,2018-02-02 22:04:12+00:00,2018-02-08 17:29:42+00:00,,Conjunction_12,17,1,0,1770,0,N/A
ADMIN-UCSF-BK014,2018-02-02 22:04:12+00:00,2018-02-08 17:29:42+00:00,,Conjunction_4,17,0,0,1180,1,1207.464098930359
ADMIN-UCSF-BK014,2018-02-02 22:04:12+00:00,2018-02-08 17:29:42+00:00,,Feature_12,17,0,1,1560,0,1234.792947769165
ADMIN-UCSF-BK014,2018-02-02 22:04:12+00:00,2018-02-08 17:29:42+00:00,,Feature_4,17,1,1,730,0,617.8250312805176
ADMIN-UCSF-BK014,2018-02-02 22:04:12+00:00,2018-02-08 17:29:42+00:00,,Conjunction_12,18,1,1,1810,0,1554.3540716171265
ADMIN-UCSF-BK014,2018-02-02 22:04:12+00:00,2018-02-08 17:29:42+00:00,,Conjunction_4,18,0,1,1220,0,1101.4089584350586
ADMIN-UCSF-BK014,2018-02-02 22:04:12+00:00,2018-02-08 17:29:42+00:00,,Feature_12,18,0,1,1480,0,836.4160060882568
ADMIN-UCSF-BK014,2018-02-02 22:04:12+00:00,2018-02-08 17:29:42+00:00,,Feature_4,18,0,1,720,0,587.4730348587036
ADMIN-UCSF-BK014,2018-02-02 22:04:12+00:00,2018-02-08 17:29:42+00:00,,Conjunction_12,19,0,1,1800,0,1643.7050104141235
ADMIN-UCSF-BK014,2018-02-02 22:04:12+00:00,2018-02-08 17:29:42+00:00,,Conjunction_4,19,1,1,1210,0,1031.519055366516
ADMIN-UCSF-BK014,2018-02-02 22:04:12+00:00,2018-02-08 17:29:42+00:00,,Feature_12,19,1,0,1320,1,1415.5840873718262
ADMIN-UCSF-BK014,2018-02-02 22:04:12+00:00,2018-02-08 17:29:42+00:00,,Feature_4,19,1,1,710,0,702.767014503479
ADMIN-UCSF-BK014,2018-02-02 22:04:12+00:00,2018-02-08 17:29:42+00:00,,Conjunction_12,20,1,1,1790,0,1742.0849800109863
ADMIN-UCSF-BK014,2018-02-02 22:04:12+00:00,2018-02-08 17:29:42+00:00,,Conjunction_4,20,1,1,1200,0,956.9809436798096
ADMIN-UCSF-BK014,2018-02-02 22:04:12+00:00,2018-02-08 17:29:42+00:00,,Feature_12,20,1,1,1360,0,717.3769474029541
ADMIN-UCSF-BK014,2018-02-02 22:04:12+00:00,2018-02-08 17:29:42+00:00,,Feature_4,20,1,1,690,0,648.1499671936035
ADMIN-UCSF-BK014,2018-02-02 22:04:12+00:00,2018-02-08 17:29:42+00:00,,Conjunction_12,21,1,0,1770,1,N/A
ADMIN-UCSF-BK014,2018-02-02 22:04:12+00:00,2018-02-08 17:29:42+00:00,,Conjunction_4,21,1,0,1180,1,1394.873023033142
ADMIN-UCSF-BK014,2018-02-02 22:04:12+00:00,2018-02-08 17:29:42+00:00,,Feature_12,21,1,1,1350,0,631.7059993743896
ADMIN-UCSF-BK014,2018-02-02 22:04:12+00:00,2018-02-08 17:29:42+00:00,,Feature_4,21,0,1,650,0,640.3050422668457
ADMIN-UCSF-BK014,2018-02-02 22:04:12+00:00,2018-02-08 17:29:42+00:00,,Conjunction_12,22,0,1,1810,0,1285.4100465774536
ADMIN-UCSF-BK014,2018-02-02 22:04:12+00:00,2018-02-08 17:29:42+00:00,,Conjunction_4,22,1,1,1220,0,1118.0510520935059
ADMIN-UCSF-BK014,2018-02-02 22:04:12+00:00,2018-02-08 17:29:42+00:00,,Feature_12,22,0,1,1340,0,759.4850063323975
ADMIN-UCSF-BK014,2018-02-02 22:04:12+00:00,2018-02-08 17:29:42+00:00,,Feature_4,22,0,0,570,1,806.0109615325928
ADMIN-UCSF-BK014,2018-02-02 22:04:12+00:00,2018-02-08 17:29:42+00:00,,Conjunction_12,23,0,1,1800,0,1279.1550159454346
ADMIN-UCSF-BK014,2018-02-02 22:04:12+00:00,2018-02-08 17:29:42+00:00,,Conjunction_4,23,1,0,1210,1,1262.1049880981445
ADMIN-UCSF-BK014,2018-02-02 22:04:12+00:00,2018-02-08 17:29:42+00:00,,Feature_12,23,1,1,1320,0,654.2659997940063
ADMIN-UCSF-BK014,2018-02-02 22:04:12+00:00,2018-02-08 17:29:42+00:00,,Feature_4,23,0,1,610,0,572.2839832305908
ADMIN-UCSF-BK014,2018-02-02 22:04:12+00:00,2018-02-08 17:29:42+00:00,,Conjunction_12,24,0,0,1790,0,1778.8900136947632
ADMIN-UCSF-BK014,2018-02-02 22:04:12+00:00,2018-02-08 17:29:42+00:00,,Conjunction_4,24,0,1,1250,0,1122.1100091934204
ADMIN-UCSF-BK014,2018-02-02 22:04:12+00:00,2018-02-08 17:29:42+00:00,,Feature_12,24,1,1,1280,0,616.5509223937988
ADMIN-UCSF-BK014,2018-02-02 22:04:12+00:00,2018-02-08 17:29:42+00:00,,Feature_4,24,0,0,600,1,954.8269510269165
ADMIN-UCSF-BK012,2018-02-02 22:25:54+00:00,2018-02-08 17:29:42+00:00,,Conjunction_12,0,1,1,1000,0,847.9690551757812
ADMIN-UCSF-BK012,2018-02-02 22:25:54+00:00,2018-02-08 17:29:42+00:00,,Conjunction_4,0,0,0,1000,1,1055.8620691299438
ADMIN-UCSF-BK012,2018-02-02 22:25:54+00:00,2018-02-08 17:29:42+00:00,,Feature_12,0,1,1,1000,0,962.3410701751709
ADMIN-UCSF-BK012,2018-02-02 22:25:54+00:00,2018-02-08 17:29:42+00:00,,Feature_4,0,0,1,1000,0,763.6499404907227
ADMIN-UCSF-BK012,2018-02-02 22:25:54+00:00,2018-02-08 17:29:42+00:00,,Conjunction_12,1,1,0,990,1,N/A
ADMIN-UCSF-BK012,2018-02-02 22:25:54+00:00,2018-02-08 17:29:42+00:00,,Conjunction_4,1,1,1,1040,0,760.4360580444336
ADMIN-UCSF-BK012,2018-02-02 22:25:54+00:00,2018-02-08 17:29:42+00:00,,Feature_12,1,1,1,990,0,781.4469337463379
ADMIN-UCSF-BK012,2018-02-02 22:25:54+00:00,2018-02-08 17:29:42+00:00,,Feature_4,1,1,1,990,0,557.9789876937866
ADMIN-UCSF-BK012,2018-02-02 22:25:54+00:00,2018-02-08 17:29:42+00:00,,Conjunction_12,2,0,0,1030,1,N/A
ADMIN-UCSF-BK012,2018-02-02 22:25:54+00:00,2018-02-08 17:29:42+00:00,,Conjunction_4,2,0,1,1030,0,713.9650583267212
ADMIN-UCSF-BK012,2018-02-02 22:25:54+00:00,2018-02-08 17:29:42+00:00,,Feature_12,2,0,1,980,0,861.393928527832
ADMIN-UCSF-BK012,2018-02-02 22:25:54+00:00,2018-02-08 17:29:42+00:00,,Feature_4,2,0,1,980,0,500.8740425109863
ADMIN-UCSF-BK012,2018-02-02 22:25:54+00:00,2018-02-08 17:29:42+00:00,,Conjunction_12,3,0,0,1070,1,N/A
ADMIN-UCSF-BK012,2018-02-02 22:25:54+00:00,2018-02-08 17:29:42+00:00,,Conjunction_4,3,0,0,1020,0,807.8999519348145
ADMIN-UCSF-BK012,2018-02-02 22:25:54+00:00,2018-02-08 17:29:42+00:00,,Feature_12,3,0,1,960,0,683.1300258636475
ADMIN-UCSF-BK012,2018-02-02 22:25:54+00:00,2018-02-08 17:29:42+00:00,,Feature_4,3,0,1,960,0,841.9950008392334
ADMIN-UCSF-BK012,2018-02-02 22:25:54+00:00,2018-02-08 17:29:42+00:00,,Conjunction_12,4,0,1,1150,0,1052.9240369796753
ADMIN-UCSF-BK012,2018-02-02 22:25:54+00:00,2018-02-08 17:29:42+00:00,,Conjunction_4,4,0,1,1060,0,617.8879737854004
ADMIN-UCSF-BK012,2018-02-02 22:25:54+00:00,2018-02-08 17:29:42+00:00,,Feature_12,4,0,1,920,0,784.1190099716187
ADMIN-UCSF-BK012,2018-02-02 22:25:54+00:00,2018-02-08 17:29:42+00:00,,Feature_4,4,0,1,920,0,732.1000099182129
ADMIN-UCSF-BK012,2018-02-02 22:25:54+00:00,2018-02-08 17:29:42+00:00,,Conjunction_12,5,0,0,1140,0,1125.0989437103271
ADMIN-UCSF-BK012,2018-02-02 22:25:54+00:00,2018-02-08 17:29:42+00:00,,Conjunction_4,5,0,1,1050,0,982.2709560394287
