participant_id,time_gameplayed_utc,time_sent_utc,detail,condition,trial_number,flanking_cue,response_window,response_time,first_button,correct_button,trial_type,second_button,late_response,displayed_cue
ADMIN-UCSF-BK002,2017-10-16 20:42:04+00:00,2017-10-19 21:30:24+00:00,,,0,B,800,630.5369734764099,NO,1,INCONGRUENT,YES,0,C
ADMIN-UCSF-BK002,2017-10-16 20:42:04+00:00,2017-10-19 21:30:24+00:00,,,1,B,790,709.9080085754395,NO,1,INCONGRUENT,YES,0,D
ADMIN-UCSF-BK002,2017-10-16 20:42:04+00:00,2017-10-19 21:30:24+00:00,,,2,D,800,610.0110411643982,NO,1,CONGRUENT,YES,0,D
ADMIN-UCSF-BK002,2017-10-16 20:42:04+00:00,2017-10-19 21:30:24+00:00,,,3,D,780,650.111973285675,YES,1,INCONGRUENT,NO,0,B
ADMIN-UCSF-BK002,2017-10-16 20:42:04+00:00,2017-10-19 21:30:24+00:00,,,4,C,790,N/A,NO,0,CONGRUENT,NO,1,C
ADMIN-UCSF-BK002,2017-10-16 20:42:04+00:00,2017-10-19 21:30:24+00:00,,,5,B,760,470.3860282897949,YES,0,INCONGRUENT,NO,0,C
ADMIN-UCSF-BK002,2017-10-16 20:42:04+00:00,2017-10-19 21:30:24+00:00,,,6,C,830,459.896981716156,NO,1,CONGRUENT,YES,0,C
ADMIN-UCSF-BK002,2017-10-16 20:42:04+00:00,2017-10-19 21:30:24+00:00,,,7,D,820,440.4839873313904,YES,0,CONGRUENT,NO,0,D
ADMIN-UCSF-BK002,2017-10-16 20:42:04+00:00,2017-10-19 21:30:24+00:00,,,8,B,860,691.7529702186584,YES,1,CONGRUENT,NO,0,B
ADMIN-UCSF-BK002,2017-10-16 20:42:04+00:00,2017-10-19 21:30:24+00:00,,,9,D,850,526.0950326919556,NO,1,CONGRUENT,YES,0,D
ADMIN-UCSF-BK002,2017-10-16 20:42:04+00:00,2017-10-19 21:30:24+00:00,,,10,C,840,567.1679973602295,NO,1,CONGRUENT,YES,0,C
ADMIN-UCSF-BK002,2017-10-16 20:42:04+00:00,2017-10-19 21:30:24+00:00,,,11,C,800,772.8369832038879,YES,1,INCONGRUENT,NO,0,B
ADMIN-UCSF-BK002,2017-10-16 20:42:04+00:00,2017-10-19 21:30:24+00:00,,,12,B,820,628.1960010528564,YES,1,CONGRUENT,NO,0,B
ADMIN-UCSF-BK002,2017-10-16 20:42:04+00:00,2017-10-19 21:30:24+00:00,,,13,C,780,497.6579546928406,NO,1,CONGRUENT,YES,0,C
ADMIN-UCSF-BK002,2017-10-16 20:42:04+00:00,2017-10-19 21:30:24+00:00,,,14,A,790,588.3750319480896,NO,1,INCONGRUENT,YES,0,C
ADMIN-UCSF-BK002,2017-10-16 20:42:04+00:00,2017-10-19 21:30:24+00:00,,,15,C,780,525.5129933357239,NO,0,INCONGRUENT,YES,0,A
ADMIN-UCSF-BK002,2017-10-16 20:42:04+00:00,2017-10-19 21:30:24+00:00,,,16,A,700,595.7880020141602,YES,1,CONGRUENT,NO,0,A
ADMIN-UCSF-BK002,2017-10-16 20:42:04+00:00,2017-10-19 21:30:24+00:00,,,17,A,820,592.8459763526917,NO,1,INCONGRUENT,YES,0,D
ADMIN-UCSF-BK002,2017-10-16 20:42:04+00:00,2017-10-19 21:30:24+00:00,,,18,C,810,688.8929605484009,YES,1,INCONGRUENT,NO,0,A
ADMIN-UCSF-BK002,2017-10-16 20:42:04+00:00,2017-10-19 21:30:24+00:00,,,19,B,800,530.9740304946899,NO,1,INCONGRUENT,YES,0,C
ADMIN-UCSF-BK002,2017-10-16 20:42:04+00:00,2017-10-19 21:30:24+00:00,,,20,A,780,571.7390179634094,YES,0,INCONGRUENT,NO,0,D
ADMIN-UCSF-BK002,2017-10-16 20:42:04+00:00,2017-10-19 21:30:24+00:00,,,21,C,540,522.4319696426392,NO,1,CONGRUENT,YES,0,C
ADMIN-UCSF-BK002,2017-10-16 20:42:04+00:00,2017-10-19 21:30:24+00:00,,,22,B,220,490.06301164627075,YES,1,CONGRUENT,NO,1,B
ADMIN-UCSF-BK002,2017-10-16 20:42:04+00:00,2017-10-19 21:30:24+00:00,,,23,D,210,536.1070036888123,NO,1,CONGRUENT,YES,1,D
ADMIN-UCSF-BK002,2017-10-16 20:42:04+00:00,2017-10-19 21:30:24+00:00,,,24,C,200,422.45298624038696,YES,0,CONGRUENT,NO,1,C
ADMIN-UCSF-BK002,2017-10-16 20:42:04+00:00,2017-10-19 21:30:24+00:00,,,25,D,280,381.11501932144165,NO,1,CONGRUENT,YES,1,D
ADMIN-UCSF-BK002,2017-10-16 20:42:04+00:00,2017-10-19 21:30:24+00:00,,,26,C,820,488.6409640312195,YES,1,INCONGRUENT,NO,0,A
ADMIN-UCSF-BK002,2017-10-16 20:42:04+00:00,2017-10-19 21:30:24+00:00,,,27,C,270,393.76699924468994,NO,1,CONGRUENT,YES,1,C
ADMIN-UCSF-BK002,2017-10-16 20:42:04+00:00,2017-10-19 21:30:24+00:00,,,28,D,260,715.1049971580505,YES,0,CONGRUENT,NO,1,D
ADMIN-UCSF-BK002,2017-10-16 20:42:04+00:00,2017-10-19 21:30:24+00:00,,,29,D,810,476.19497776031494,NO,0,INCONGRUENT,YES,0,B
ADMIN-UCSF-BK002,2017-10-16 20:42:04+00:00,2017-10-19 21:30:24+00:00,,,30,A,850,660.3969931602478,NO,1,INCONGRUENT,YES,0,D
ADMIN-UCSF-BK002,2017-10-16 20:42:04+00:00,2017-10-19 21:30:24+00:00,,,31,C,900,778.05095911026,NO,1,CONGRUENT,YES,0,C
ADMIN-UCSF-BK002,2017-10-16 20:42:04+00:00,2017-10-19 21:30:24+00:00,,,32,A,890,576.9779682159424,YES,1,CONGRUENT,NO,0,A
ADMIN-UCSF-BK002,2017-10-16 20:42:04+00:00,2017-10-19 21:30:24+00:00,,,33,D,840,841.1380052566528,YES,1,INCONGRUENT,NO,1,A
ADMIN-UCSF-BK002,2017-10-16 20:42:04+00:00,2017-10-19 21:30:24+00:00,,,34,C,830,N/A,NO,0,INCONGRUENT,NO,1,A
ADMIN-UCSF-BK002,2017-10-16 20:42:04+00:00,2017-10-19 21:30:24+00:00,,,35,B,880,750.4330277442932,YES,1,CONGRUENT,NO,0,B
ADMIN-UCSF-BK002,2017-10-16 20:42:04+00:00,2017-10-19 21:30:24+00:00,,,36,A,870,N/A,NO,0,INCONGRUENT,NO,1,C
ADMIN-UCSF-BK002,2017-10-16 20:42:04+00:00,2017-10-19 21:30:24+00:00,,,37,A,950,472.0439910888672,YES,0,INCONGRUENT,NO,0,D
ADMIN-UCSF-BK002,2017-10-16 20:42:04+00:00,2017-10-19 21:30:24+00:00,,,38,A,860,355.8099865913391,YES,1,CONGRUENT,NO,0,A
ADMIN-UCSF-BK002,2017-10-16 20:42:04+00:00,2017-10-19 21:30:24+00:00,,,39,C,1110,340.5349850654602,NO,0,INCONGRUENT,YES,0,A
ADMIN-UCSF-BK002,2017-10-16 20:42:04+00:00,2017-10-19 21:30:24+00:00,,,40,B,1430,679.9390316009521,YES,0,INCONGRUENT,NO,0,C
ADMIN-UCSF-BK002,2017-10-16 20:42:04+00:00,2017-10-19 21:30:24+00:00,,,41,B,820,836.5679979324341,YES,1,CONGRUENT,NO,1,B
ADMIN-UCSF-BK002,2017-10-16 20:42:04+00:00,2017-10-19 21:30:24+00:00,,,42,C,810,1082.5629830360413,NO,1,CONGRUENT,YES,1,C
ADMIN-UCSF-BK002,2017-10-16 20:42:04+00:00,2017-10-19 21:30:24+00:00,,,43,A,2070,676.580011844635,NO,1,INCONGRUENT,YES,0,D
ADMIN-UCSF-BK002,2017-10-16 20:42:04+00:00,2017-10-19 21:30:24+00:00,,,44,C,2060,682.191014289856,YES,1,INCONGRUENT,NO,0,A
ADMIN-UCSF-BK002,2017-10-16 20:42:04+00:00,2017-10-19 21:30:24+00:00,,,45,B,2050,1244.4270253181458,NO,1,INCONGRUENT,YES,0,C
ADMIN-UCSF-BK002,2017-10-16 20:42:04+00:00,2017-10-19 21:30:24+00:00,,,46,C,800,526.6950130462646,NO,1,CONGRUENT,YES,0,C
ADMIN-UCSF-BK002,2017-10-16 20:42:04+00:00,2017-10-19 21:30:24+00:00,,,47,C,790,489.96299505233765,NO,1,CONGRUENT,YES,0,C
ADMIN-UCSF-BK002,2017-10-16 20:42:04+00:00,2017-10-19 21:30:24+00:00,,,48,C,2030,691.3819909095764,YES,1,INCONGRUENT,NO,0,B
ADMIN-UCSF-BK002,2017-10-16 20:42:04+00:00,2017-10-19 21:30:24+00:00,,,49,D,1990,799.2590069770813,NO,0,INCONGRUENT,YES,0,B
ADMIN-UCSF-BK004,2017-10-16 21:04:18+00:00,2017-10-19 21:30:24+00:00,,,0,D,800,573.1329917907715,YES,1,INCONGRUENT,NO,0,A
ADMIN-UCSF-BK004,2017-10-16 21:04:18+00:00,2017-10-19 21:30:24+00:00,,,1,B,790,695.8529949188232,NO,1,INCONGRUENT,YES,0,D
ADMIN-UCSF-BK004,2017-10-16 21:04:18+00:00,2017-10-19 21:30:24+00:00,,,2,D,800,542.493999004364,YES,0,CONGRUENT,NO,0,D
ADMIN-UCSF-BK004,2017-10-16 21:04:18+00:00,2017-10-19 21:30:24+00:00,,,3,D,840,583.092987537384,NO,1,CONGRUENT,YES,0,D
ADMIN-UCSF-BK004,2017-10-16 21:04:18+00:00,2017-10-19 21:30:24+00:00,,,4,C,780,592.0340418815613,YES,1,INCONGRUENT,NO,0,B
ADMIN-UCSF-BK004,2017-10-16 21:04:18+00:00,2017-10-19 21:30:24+00:00,,,5,D,830,726.4919877052307,YES,0,CONGRUENT,NO,0,D
ADMIN-UCSF-BK004,2017-10-16 21:04:18+00:00,2017-10-19 21:30:24+00:00,,,6,D,870,592.0239686965942,NO,1,CONGRUENT,YES,0,D
ADMIN-UCSF-BK004,2017-10-16 21:04:18+00:00,2017-10-19 21:30:24+00:00,,,7,D,760,616.919994354248,YES,1,INCONGRUENT,NO,0,A
ADMIN-UCSF-BK004,2017-10-16 21:04:18+00:00,2017-10-19 21:30:24+00:00,,,8,B,720,636.2500190734863,NO,1,INCONGRUENT,YES,0,D
ADMIN-UCSF-BK004,2017-10-16 21:04:18+00:00,2017-10-19 21:30:24+00:00,,,9,B,640,709.1930508613586,YES,0,INCONGRUENT,NO,1,C
ADMIN-UCSF-BK004,2017-10-16 21:04:18+00:00,2017-10-19 21:30:24+00:00,,,10,B,860,855.2190065383911,NO,0,CONGRUENT,YES,0,B
ADMIN-UCSF-BK004,2017-10-16 21:04:18+00:00,2017-10-19 21:30:24+00:00,,,11,A,900,633.1440210342407,YES,1,CONGRUENT,NO,0,A
ADMIN-UCSF-BK004,2017-10-16 21:04:18+00:00,2017-10-19 21:30:24+00:00,,,12,C,890,515.667974948883,NO,1,CONGRUENT,YES,0,C
ADMIN-UCSF-BK004,2017-10-16 21:04:18+00:00,2017-10-19 21:30:24+00:00,,,13,D,680,601.73100233078,YES,1,INCONGRUENT,NO,0,A
ADMIN-UCSF-BK004,2017-10-16 21:04:18+00:00,2017-10-19 21:30:24+00:00,,,14,C,880,565.574049949646,NO,1,CONGRUENT,YES,0,C
ADMIN-UCSF-BK004,2017-10-16 21:04:18+00:00,2017-10-19 21:30:24+00:00,,,15,D,670,439.4490122795105,YES,1,INCONGRUENT,NO,0,A
ADMIN-UCSF-BK004,2017-10-16 21:04:18+00:00,2017-10-19 21:30:24+00:00,,,16,A,660,718.172013759613,NO,1,INCONGRUENT,YES,1,D
ADMIN-UCSF-BK004,2017-10-16 21:04:18+00:00,2017-10-19 21:30:24+00:00,,,17,D,650,576.4679908752441,YES,1,INCONGRUENT,NO,0,B
ADMIN-UCSF-BK004,2017-10-16 21:04:18+00:00,2017-10-19 21:30:24+00:00,,,18,D,640,448.19700717926025,NO,0,INCONGRUENT,YES,0,B
ADMIN-UCSF-BK004,2017-10-16 21:04:18+00:00,2017-10-19 21:30:24+00:00,,,19,B,860,641.4870023727417,YES,1,CONGRUENT,NO,0,B
ADMIN-UCSF-BK004,2017-10-16 21:04:18+00:00,2017-10-19 21:30:24+00:00,,,20,A,680,770.5909609794617,NO,1,INCONGRUENT,YES,1,D
ADMIN-UCSF-BK004,2017-10-16 21:04:18+00:00,2017-10-19 21:30:24+00:00,,,21,D,820,619.8790073394775,NO,1,CONGRUENT,YES,0,D
ADMIN-UCSF-BK004,2017-10-16 21:04:18+00:00,2017-10-19 21:30:24+00:00,,,22,A,740,422.97202348709106,YES,1,CONGRUENT,NO,0,A
ADMIN-UCSF-BK004,2017-10-16 21:04:18+00:00,2017-10-19 21:30:24+00:00,,,23,A,580,380.96100091934204,NO,0,CONGRUENT,YES,0,A
ADMIN-UCSF-BK004,2017-10-16 21:04:18+00:00,2017-10-19 21:30:24+00:00,,,24,C,670,316.1580562591553,YES,1,INCONGRUENT,NO,0,B
ADMIN-UCSF-BK004,2017-10-16 21:04:18+00:00,2017-10-19 21:30:24+00:00,,,25,A,660,513.8660073280334,NO,1,INCONGRUENT,YES,0,C
ADMIN-UCSF-BK004,2017-10-16 21:04:18+00:00,2017-10-19 21:30:24+00:00,,,26,D,650,597.0759987831116,YES,1,INCONGRUENT,NO,0,B
ADMIN-UCSF-BK004,2017-10-16 21:04:18+00:00,2017-10-19 21:30:24+00:00,,,27,C,630,693.867027759552,YES,1,INCONGRUENT,NO,1,A
ADMIN-UCSF-BK004,2017-10-16 21:04:18+00:00,2017-10-19 21:30:24+00:00,,,28,A,620,470.3189730644226,NO,1,INCONGRUENT,YES,0,C
ADMIN-UCSF-BK004,2017-10-16 21:04:18+00:00,2017-10-19 21:30:24+00:00,,,29,D,610,367.48695373535156,YES,1,INCONGRUENT,NO,0,A
ADMIN-UCSF-BK004,2017-10-16 21:04:18+00:00,2017-10-19 21:30:24+00:00,,,30,C,600,312.8080368041992,NO,0,INCONGRUENT,YES,0,A
ADMIN-UCSF-BK004,2017-10-16 21:04:18+00:00,2017-10-19 21:30:24+00:00,,,31,C,620,512.0949745178223,YES,0,CONGRUENT,NO,0,C
ADMIN-UCSF-BK004,2017-10-16 21:04:18+00:00,2017-10-19 21:30:24+00:00,,,32,C,660,642.2330141067505,NO,1,CONGRUENT,YES,0,C
ADMIN-UCSF-BK004,2017-10-16 21:04:18+00:00,2017-10-19 21:30:24+00:00,,,33,B,640,899.7029662132263,NO,1,INCONGRUENT,YES,1,D
ADMIN-UCSF-BK004,2017-10-16 21:04:18+00:00,2017-10-19 21:30:24+00:00,,,34,D,650,549.5530366897583,YES,0,CONGRUENT,NO,0,D
ADMIN-UCSF-BK004,2017-10-16 21:04:18+00:00,2017-10-19 21:30:24+00:00,,,35,A,690,324.4439959526062,NO,0,CONGRUENT,YES,0,A
ADMIN-UCSF-BK004,2017-10-16 21:04:18+00:00,2017-10-19 21:30:24+00:00,,,36,A,730,468.0129885673523,YES,1,CONGRUENT,NO,0,A
ADMIN-UCSF-BK004,2017-10-16 21:04:18+00:00,2017-10-19 21:30:24+00:00,,,37,D,630,N/A,NO,0,INCONGRUENT,NO,1,B
ADMIN-UCSF-BK004,2017-10-16 21:04:18+00:00,2017-10-19 21:30:24+00:00,,,38,C,710,721.1880087852478,YES,1,INCONGRUENT,NO,1,B
ADMIN-UCSF-BK004,2017-10-16 21:04:18+00:00,2017-10-19 21:30:24+00:00,,,39,C,720,581.5169811248779,NO,1,CONGRUENT,YES,0,C
ADMIN-UCSF-BK004,2017-10-16 21:04:18+00:00,2017-10-19 21:30:24+00:00,,,40,C,700,756.0699582099915,YES,1,INCONGRUENT,NO,1,A
ADMIN-UCSF-BK004,2017-10-16 21:04:18+00:00,2017-10-19 21:30:24+00:00,,,41,D,690,582.3319554328918,YES,1,INCONGRUENT,NO,0,A
ADMIN-UCSF-BK004,2017-10-16 21:04:18+00:00,2017-10-19 21:30:24+00:00,,,42,C,710,636.2329721450806,YES,0,CONGRUENT,NO,0,C
ADMIN-UCSF-BK004,2017-10-16 21:04:18+00:00,2017-10-19 21:30:24+00:00,,,43,B,750,515.1110291481018,NO,0,CONGRUENT,YES,0,B
ADMIN-UCSF-BK004,2017-10-16 21:04:18+00:00,2017-10-19 21:30:24+00:00,,,44,D,790,240.34196138381958,YES,0,CONGRUENT,NO,0,D
ADMIN-UCSF-BK004,2017-10-16 21:04:18+00:00,2017-10-19 21:30:24+00:00,,,45,B,680,744.0729737281799,YES,0,INCONGRUENT,NO,1,C
ADMIN-UCSF-BK004,2017-10-16 21:04:18+00:00,2017-10-19 21:30:24+00:00,,,46,C,870,779.3220281600952,NO,1,CONGRUENT,YES,0,C
ADMIN-UCSF-BK004,2017-10-16 21:04:18+00:00,2017-10-19 21:30:24+00:00,,,47,A,860,506.87599182128906,YES,1,CONGRUENT,NO,0,A
ADMIN-UCSF-BK004,2017-10-16 21:04:18+00:00,2017-10-19 21:30:24+00:00,,,48,A,850,498.1110095977783,YES,1,CONGRUENT,NO,0,A
ADMIN-UCSF-BK004,2017-10-16 21:04:18+00:00,2017-10-19 21:30:24+00:00,,,49,A,830,396.69597148895264,YES,1,CONGRUENT,NO,0,A
ADMIN-UCSF-BK001,2017-10-16 20:23:03+00:00,2017-10-25 14:31:52+00:00,,,0,B,800,753.7789940834045,NO,0,CONGRUENT,YES,0,B
ADMIN-UCSF-BK001,2017-10-16 20:23:03+00:00,2017-10-25 14:31:52+00:00,,,1,A,800,N/A,NO,0,INCONGRUENT,NO,0,C
ADMIN-UCSF-BK001,2017-10-16 20:23:03+00:00,2017-10-25 14:31:52+00:00,,,2,B,840,N/A,NO,0,CONGRUENT,NO,0,B
ADMIN-UCSF-BK001,2017-10-16 20:23:03+00:00,2017-10-25 14:31:52+00:00,,,3,A,880,694.9740052223206,YES,1,CONGRUENT,NO,0,A
ADMIN-UCSF-BK001,2017-10-16 20:23:03+00:00,2017-10-25 14:31:52+00:00,,,4,D,840,797.104001045227,YES,1,INCONGRUENT,NO,0,A
ADMIN-UCSF-BK001,2017-10-16 20:23:03+00:00,2017-10-25 14:31:52+00:00,,,5,A,830,831.387996673584,NO,1,INCONGRUENT,YES,1,D
ADMIN-UCSF-BK001,2017-10-16 20:23:03+00:00,2017-10-25 14:31:52+00:00,,,6,C,820,756.14994764328,YES,1,INCONGRUENT,NO,0,A
ADMIN-UCSF-BK001,2017-10-16 20:23:03+00:00,2017-10-25 14:31:52+00:00,,,7,C,810,800.3159761428833,YES,1,INCONGRUENT,NO,0,A
ADMIN-UCSF-BK001,2017-10-16 20:23:03+00:00,2017-10-25 14:31:52+00:00,,,8,A,870,715.9689664840698,YES,1,CONGRUENT,NO,0,A
ADMIN-UCSF-BK001,2017-10-16 20:23:03+00:00,2017-10-25 14:31:52+00:00,,,9,B,800,567.0220255851746,NO,1,INCONGRUENT,YES,0,D
ADMIN-UCSF-BK001,2017-10-16 20:23:03+00:00,2017-10-25 14:31:52+00:00,,,10,D,860,809.6530437469482,NO,1,CONGRUENT,YES,0,D
ADMIN-UCSF-BK001,2017-10-16 20:23:03+00:00,2017-10-25 14:31:52+00:00,,,11,B,780,790.7969951629639,NO,1,INCONGRUENT,YES,1,D
ADMIN-UCSF-BK001,2017-10-16 20:23:03+00:00,2017-10-25 14:31:52+00:00,,,12,B,770,872.8330135345459,NO,1,INCONGRUENT,YES,1,C
ADMIN-UCSF-BK001,2017-10-16 20:23:03+00:00,2017-10-25 14:31:52+00:00,,,13,A,760,874.610960483551,NO,1,INCONGRUENT,YES,1,C
ADMIN-UCSF-BK001,2017-10-16 20:23:03+00:00,2017-10-25 14:31:52+00:00,,,14,C,750,721.2389707565308,YES,1,INCONGRUENT,NO,0,A
ADMIN-UCSF-BK001,2017-10-16 20:23:03+00:00,2017-10-25 14:31:52+00:00,,,15,B,740,783.1699848175049,NO,1,INCONGRUENT,YES,1,C
ADMIN-UCSF-BK001,2017-10-16 20:23:03+00:00,2017-10-25 14:31:52+00:00,,,16,C,730,817.3879981040955,YES,1,INCONGRUENT,NO,1,A
ADMIN-UCSF-BK001,2017-10-16 20:23:03+00:00,2017-10-25 14:31:52+00:00,,,17,C,840,825.3090381622314,NO,1,CONGRUENT,YES,0,C
ADMIN-UCSF-BK001,2017-10-16 20:23:03+00:00,2017-10-25 14:31:52+00:00,,,18,D,800,802.7840256690979,NO,1,CONGRUENT,YES,1,D
ADMIN-UCSF-BK001,2017-10-16 20:23:03+00:00,2017-10-25 14:31:52+00:00,,,19,C,720,739.188015460968,YES,1,INCONGRUENT,NO,1,A
ADMIN-UCSF-BK001,2017-10-16 20:23:03+00:00,2017-10-25 14:31:52+00:00,,,20,D,710,N/A,NO,0,INCONGRUENT,NO,1,B
ADMIN-UCSF-BK001,2017-10-16 20:23:03+00:00,2017-10-25 14:31:52+00:00,,,21,C,870,752.174973487854,YES,1,INCONGRUENT,NO,0,B
ADMIN-UCSF-BK001,2017-10-16 20:23:03+00:00,2017-10-25 14:31:52+00:00,,,22,A,790,863.5460138320923,YES,1,CONGRUENT,NO,1,A
ADMIN-UCSF-BK001,2017-10-16 20:23:03+00:00,2017-10-25 14:31:52+00:00,,,23,D,780,855.9679985046387,NO,1,CONGRUENT,YES,1,D
ADMIN-UCSF-BK001,2017-10-16 20:23:03+00:00,2017-10-25 14:31:52+00:00,,,24,B,770,548.8550066947937,YES,1,CONGRUENT,NO,0,B
ADMIN-UCSF-BK001,2017-10-16 20:23:03+00:00,2017-10-25 14:31:52+00:00,,,25,C,860,635.9440088272095,YES,1,INCONGRUENT,NO,0,A
ADMIN-UCSF-BK001,2017-10-16 20:23:03+00:00,2017-10-25 14:31:52+00:00,,,26,B,850,N/A,NO,0,INCONGRUENT,NO,1,D
ADMIN-UCSF-BK001,2017-10-16 20:23:03+00:00,2017-10-25 14:31:52+00:00,,,27,A,760,627.2409558296204,YES,1,CONGRUENT,NO,0,A
ADMIN-UCSF-BK001,2017-10-16 20:23:03+00:00,2017-10-25 14:31:52+00:00,,,28,D,890,370.09501457214355,NO,0,INCONGRUENT,YES,0,B
ADMIN-UCSF-BK001,2017-10-16 20:23:03+00:00,2017-10-25 14:31:52+00:00,,,29,B,750,341.8949842453003,YES,1,CONGRUENT,NO,0,B
ADMIN-UCSF-BK001,2017-10-16 20:23:03+00:00,2017-10-25 14:31:52+00:00,,,30,D,730,431.3700199127197,NO,1,CONGRUENT,YES,0,D
ADMIN-UCSF-BK001,2017-10-16 20:23:03+00:00,2017-10-25 14:31:52+00:00,,,31,B,690,349.68799352645874,YES,1,CONGRUENT,NO,0,B
ADMIN-UCSF-BK001,2017-10-16 20:23:03+00:00,2017-10-25 14:31:52+00:00,,,32,D,610,476.3000011444092,NO,1,CONGRUENT,YES,0,D
ADMIN-UCSF-BK001,2017-10-16 20:23:03+00:00,2017-10-25 14:31:52+00:00,,,33,B,930,475.97700357437134,NO,1,INCONGRUENT,YES,0,C
ADMIN-UCSF-BK001,2017-10-16 20:23:03+00:00,2017-10-25 14:31:52+00:00,,,34,D,450,551.3229966163635,NO,1,CONGRUENT,YES,1,D
ADMIN-UCSF-BK001,2017-10-16 20:23:03+00:00,2017-10-25 14:31:52+00:00,,,35,C,440,565.591037273407,NO,1,CONGRUENT,YES,1,C
ADMIN-UCSF-BK001,2017-10-16 20:23:03+00:00,2017-10-25 14:31:52+00:00,,,36,B,920,665.7049655914307,YES,0,INCONGRUENT,NO,0,D
ADMIN-UCSF-BK001,2017-10-16 20:23:03+00:00,2017-10-25 14:31:52+00:00,,,37,B,960,784.8960161209106,NO,1,INCONGRUENT,YES,0,D
ADMIN-UCSF-BK001,2017-10-16 20:23:03+00:00,2017-10-25 14:31:52+00:00,,,38,D,950,655.4920077323914,NO,0,INCONGRUENT,YES,0,B
ADMIN-UCSF-BK001,2017-10-16 20:23:03+00:00,2017-10-25 14:31:52+00:00,,,39,A,990,646.1080312728882,YES,0,INCONGRUENT,NO,0,C
ADMIN-UCSF-BK001,2017-10-16 20:23:03+00:00,2017-10-25 14:31:52+00:00,,,40,D,430,649.6100425720215,NO,1,CONGRUENT,YES,1,D
ADMIN-UCSF-BK001,2017-10-16 20:23:03+00:00,2017-10-25 14:31:52+00:00,,,41,D,420,456.8979740142822,NO,1,CONGRUENT,YES,1,D
ADMIN-UCSF-BK001,2017-10-16 20:23:03+00:00,2017-10-25 14:31:52+00:00,,,42,B,1030,333.5939645767212,NO,1,INCONGRUENT,YES,0,C
ADMIN-UCSF-BK001,2017-10-16 20:23:03+00:00,2017-10-25 14:31:52+00:00,,,43,C,410,522.2129821777344,NO,1,CONGRUENT,YES,1,C
ADMIN-UCSF-BK001,2017-10-16 20:23:03+00:00,2017-10-25 14:31:52+00:00,,,44,B,400,333.9740037918091,NO,0,CONGRUENT,YES,0,B
ADMIN-UCSF-BK001,2017-10-16 20:23:03+00:00,2017-10-25 14:31:52+00:00,,,45,A,1040,529.6939611434937,NO,0,CONGRUENT,YES,0,A
ADMIN-UCSF-BK001,2017-10-16 20:23:03+00:00,2017-10-25 14:31:52+00:00,,,46,B,2320,643.8820362091064,NO,0,CONGRUENT,YES,0,B
ADMIN-UCSF-BK001,2017-10-16 20:23:03+00:00,2017-10-25 14:31:52+00:00,,,47,D,4880,622.4989891052246,NO,1,CONGRUENT,YES,0,D
ADMIN-UCSF-BK001,2017-10-16 20:23:03+00:00,2017-10-25 14:31:52+00:00,,,48,C,1020,746.2930083274841,YES,1,INCONGRUENT,NO,0,B
ADMIN-UCSF-BK001,2017-10-16 20:23:03+00:00,2017-10-25 14:31:52+00:00,,,49,C,4870,621.8550205230713,YES,0,CONGRUENT,NO,0,C
ADMIN-UCSF-BK007,2018-01-30 21:16:09+00:00,2018-02-02 21:20:48+00:00,,,0,B,800,N/A,NO,0,CONGRUENT,NO,0,B
ADMIN-UCSF-BK007,2018-01-30 21:16:09+00:00,2018-02-02 21:20:48+00:00,,,1,D,800,802.075982093811,NO,0,INCONGRUENT,YES,1,A
ADMIN-UCSF-BK007,2018-01-30 21:16:09+00:00,2018-02-02 21:20:48+00:00,,,2,A,840,461.1949920654297,YES,1,CONGRUENT,NO,0,A
ADMIN-UCSF-BK007,2018-01-30 21:16:09+00:00,2018-02-02 21:20:48+00:00,,,3,C,830,591.4050340652466,NO,1,CONGRUENT,YES,0,C
ADMIN-UCSF-BK007,2018-01-30 21:16:09+00:00,2018-02-02 21:20:48+00:00,,,4,A,840,808.169960975647,NO,1,INCONGRUENT,YES,0,C
ADMIN-UCSF-BK007,2018-01-30 21:16:09+00:00,2018-02-02 21:20:48+00:00,,,5,A,820,491.4970397949219,YES,1,CONGRUENT,NO,0,A
ADMIN-UCSF-BK007,2018-01-30 21:16:09+00:00,2018-02-02 21:20:48+00:00,,,6,A,800,482.8139543533325,YES,1,CONGRUENT,NO,0,A
ADMIN-UCSF-BK007,2018-01-30 21:16:09+00:00,2018-02-02 21:20:48+00:00,,,7,A,830,599.8790264129639,NO,1,INCONGRUENT,YES,0,C
ADMIN-UCSF-BK007,2018-01-30 21:16:09+00:00,2018-02-02 21:20:48+00:00,,,8,D,820,791.6940450668335,YES,1,INCONGRUENT,NO,0,B
ADMIN-UCSF-BK007,2018-01-30 21:16:09+00:00,2018-02-02 21:20:48+00:00,,,9,B,760,541.7460203170776,YES,1,CONGRUENT,NO,0,B
ADMIN-UCSF-BK007,2018-01-30 21:16:09+00:00,2018-02-02 21:20:48+00:00,,,10,B,680,514.4979953765869,YES,1,CONGRUENT,NO,0,B
ADMIN-UCSF-BK007,2018-01-30 21:16:09+00:00,2018-02-02 21:20:48+00:00,,,11,A,520,574.2650032043457,NO,0,CONGRUENT,YES,1,A
ADMIN-UCSF-BK007,2018-01-30 21:16:09+00:00,2018-02-02 21:20:48+00:00,,,12,D,800,N/A,NO,0,INCONGRUENT,NO,1,B
ADMIN-UCSF-BK007,2018-01-30 21:16:09+00:00,2018-02-02 21:20:48+00:00,,,13,A,840,N/A,NO,0,INCONGRUENT,NO,0,C
ADMIN-UCSF-BK007,2018-01-30 21:16:09+00:00,2018-02-02 21:20:48+00:00,,,14,B,880,872.1799850463867,NO,1,INCONGRUENT,YES,0,D
ADMIN-UCSF-BK007,2018-01-30 21:16:09+00:00,2018-02-02 21:20:48+00:00,,,15,C,870,690.4650926589966,YES,1,INCONGRUENT,NO,0,A
ADMIN-UCSF-BK007,2018-01-30 21:16:09+00:00,2018-02-02 21:20:48+00:00,,,16,B,560,695.4410076141357,YES,1,CONGRUENT,NO,1,B
ADMIN-UCSF-BK007,2018-01-30 21:16:09+00:00,2018-02-02 21:20:48+00:00,,,17,C,860,714.9269580841064,YES,1,INCONGRUENT,NO,0,B
ADMIN-UCSF-BK007,2018-01-30 21:16:09+00:00,2018-02-02 21:20:48+00:00,,,18,D,550,819.7360038757324,NO,1,CONGRUENT,YES,1,D
ADMIN-UCSF-BK007,2018-01-30 21:16:09+00:00,2018-02-02 21:20:48+00:00,,,19,C,840,874.2600679397583,NO,0,INCONGRUENT,YES,1,B
ADMIN-UCSF-BK007,2018-01-30 21:16:09+00:00,2018-02-02 21:20:48+00:00,,,20,D,880,724.6049642562866,YES,1,INCONGRUENT,NO,0,A
ADMIN-UCSF-BK007,2018-01-30 21:16:09+00:00,2018-02-02 21:20:48+00:00,,,21,D,540,N/A,NO,0,CONGRUENT,NO,1,D
ADMIN-UCSF-BK007,2018-01-30 21:16:09+00:00,2018-02-02 21:20:48+00:00,,,22,B,700,573.7509727478027,YES,1,CONGRUENT,NO,0,B
ADMIN-UCSF-BK007,2018-01-30 21:16:09+00:00,2018-02-02 21:20:48+00:00,,,23,D,690,809.9920749664307,NO,1,CONGRUENT,YES,1,D
ADMIN-UCSF-BK007,2018-01-30 21:16:09+00:00,2018-02-02 21:20:48+00:00,,,24,A,680,508.4350109100342,YES,1,CONGRUENT,NO,0,A
ADMIN-UCSF-BK007,2018-01-30 21:16:09+00:00,2018-02-02 21:20:48+00:00,,,25,B,870,822.3499059677124,NO,1,INCONGRUENT,YES,0,D
ADMIN-UCSF-BK007,2018-01-30 21:16:09+00:00,2018-02-02 21:20:48+00:00,,,26,B,860,522.8840112686157,NO,1,INCONGRUENT,YES,0,D
ADMIN-UCSF-BK007,2018-01-30 21:16:09+00:00,2018-02-02 21:20:48+00:00,,,27,D,670,845.0510501861572,NO,1,CONGRUENT,YES,1,D
ADMIN-UCSF-BK007,2018-01-30 21:16:09+00:00,2018-02-02 21:20:48+00:00,,,28,B,660,670.6579923629761,NO,0,CONGRUENT,YES,1,B
ADMIN-UCSF-BK007,2018-01-30 21:16:09+00:00,2018-02-02 21:20:48+00:00,,,29,B,700,718.4159755706787,YES,1,CONGRUENT,NO,1,B
ADMIN-UCSF-BK007,2018-01-30 21:16:09+00:00,2018-02-02 21:20:48+00:00,,,30,A,840,697.6070404052734,NO,1,INCONGRUENT,YES,0,D
ADMIN-UCSF-BK007,2018-01-30 21:16:09+00:00,2018-02-02 21:20:48+00:00,,,31,B,800,N/A,NO,0,INCONGRUENT,NO,1,C
ADMIN-UCSF-BK007,2018-01-30 21:16:09+00:00,2018-02-02 21:20:48+00:00,,,32,A,690,711.637020111084,YES,1,CONGRUENT,NO,1,A
ADMIN-UCSF-BK007,2018-01-30 21:16:09+00:00,2018-02-02 21:20:48+00:00,,,33,C,840,702.6060819625854,NO,0,INCONGRUENT,YES,0,B
ADMIN-UCSF-BK007,2018-01-30 21:16:09+00:00,2018-02-02 21:20:48+00:00,,,34,C,680,N/A,NO,0,CONGRUENT,NO,1,C
ADMIN-UCSF-BK007,2018-01-30 21:16:09+00:00,2018-02-02 21:20:48+00:00,,,35,A,880,677.543044090271,YES,0,INCONGRUENT,NO,0,C
ADMIN-UCSF-BK007,2018-01-30 21:16:09+00:00,2018-02-02 21:20:48+00:00,,,36,C,960,834.7960710525513,YES,1,INCONGRUENT,NO,0,A
ADMIN-UCSF-BK007,2018-01-30 21:16:09+00:00,2018-02-02 21:20:48+00:00,,,37,A,1000,1002.2330284118652,YES,1,CONGRUENT,NO,1,A
ADMIN-UCSF-BK007,2018-01-30 21:16:09+00:00,2018-02-02 21:20:48+00:00,,,38,C,950,931.7589998245239,YES,1,INCONGRUENT,NO,0,B
ADMIN-UCSF-BK007,2018-01-30 21:16:09+00:00,2018-02-02 21:20:48+00:00,,,39,A,990,868.1789636611938,YES,1,CONGRUENT,NO,0,A
ADMIN-UCSF-BK007,2018-01-30 21:16:09+00:00,2018-02-02 21:20:48+00:00,,,40,D,940,774.582028388977,YES,1,INCONGRUENT,NO,0,A
ADMIN-UCSF-BK007,2018-01-30 21:16:09+00:00,2018-02-02 21:20:48+00:00,,,41,D,980,639.4549608230591,NO,1,CONGRUENT,YES,0,D
ADMIN-UCSF-BK007,2018-01-30 21:16:09+00:00,2018-02-02 21:20:48+00:00,,,42,B,960,782.7440500259399,YES,1,CONGRUENT,NO,0,B
ADMIN-UCSF-BK007,2018-01-30 21:16:09+00:00,2018-02-02 21:20:48+00:00,,,43,C,920,N/A,NO,0,INCONGRUENT,NO,1,B
ADMIN-UCSF-BK007,2018-01-30 21:16:09+00:00,2018-02-02 21:20:48+00:00,,,44,D,960,930.0869703292847,YES,1,INCONGRUENT,NO,0,A
ADMIN-UCSF-BK007,2018-01-30 21:16:09+00:00,2018-02-02 21:20:48+00:00,,,45,A,950,N/A,NO,0,INCONGRUENT,NO,1,D
ADMIN-UCSF-BK007,2018-01-30 21:16:09+00:00,2018-02-02 21:20:48+00:00,,,46,B,990,N/A,NO,0,INCONGRUENT,NO,1,C
ADMIN-UCSF-BK007,2018-01-30 21:16:09+00:00,2018-02-02 21:20:48+00:00,,,47,A,920,630.5450201034546,YES,1,CONGRUENT,NO,0,A
ADMIN-UCSF-BK007,2018-01-30 21:16:09+00:00,2018-02-02 21:20:48+00:00,,,48,B,1030,564.2770528793335,NO,1,INCONGRUENT,YES,0,C
ADMIN-UCSF-BK007,2018-01-30 21:16:09+00:00,2018-02-02 21:20:48+00:00,,,49,D,840,690.1260614395142,NO,1,CONGRUENT,YES,0,D
ADMIN-UCSF-BK008,2018-01-30 21:35:55+00:00,2018-02-02 21:20:48+00:00,,,0,C,800,N/A,NO,0,CONGRUENT,NO,0,C
ADMIN-UCSF-BK008,2018-01-30 21:35:55+00:00,2018-02-02 21:20:48+00:00,,,1,C,800,676.063060760498,YES,1,INCONGRUENT,NO,0,A
ADMIN-UCSF-BK008,2018-01-30 21:35:55+00:00,2018-02-02 21:20:48+00:00,,,2,A,790,766.421914100647,NO,1,INCONGRUENT,YES,0,D
ADMIN-UCSF-BK008,2018-01-30 21:35:55+00:00,2018-02-02 21:20:48+00:00,,,3,A,840,592.4049615859985,YES,1,CONGRUENT,NO,0,A
ADMIN-UCSF-BK008,2018-01-30 21:35:55+00:00,2018-02-02 21:20:48+00:00,,,4,C,780,N/A,NO,0,INCONGRUENT,NO,1,B
ADMIN-UCSF-BK008,2018-01-30 21:35:55+00:00,2018-02-02 21:20:48+00:00,,,5,C,820,719.5819616317749,YES,1,INCONGRUENT,NO,0,A
ADMIN-UCSF-BK008,2018-01-30 21:35:55+00:00,2018-02-02 21:20:48+00:00,,,6,B,830,582.9290151596069,YES,1,CONGRUENT,NO,0,B
ADMIN-UCSF-BK008,2018-01-30 21:35:55+00:00,2018-02-02 21:20:48+00:00,,,7,A,820,668.1749820709229,YES,1,CONGRUENT,NO,0,A
ADMIN-UCSF-BK008,2018-01-30 21:35:55+00:00,2018-02-02 21:20:48+00:00,,,8,A,810,523.7430334091187,NO,1,INCONGRUENT,YES,0,C
ADMIN-UCSF-BK008,2018-01-30 21:35:55+00:00,2018-02-02 21:20:48+00:00,,,9,C,800,590.6829833984375,NO,1,CONGRUENT,YES,0,C
ADMIN-UCSF-BK008,2018-01-30 21:35:55+00:00,2018-02-02 21:20:48+00:00,,,10,B,800,716.6240215301514,NO,1,INCONGRUENT,YES,0,D
ADMIN-UCSF-BK008,2018-01-30 21:35:55+00:00,2018-02-02 21:20:48+00:00,,,11,D,760,639.3160820007324,NO,1,CONGRUENT,YES,0,D
ADMIN-UCSF-BK008,2018-01-30 21:35:55+00:00,2018-02-02 21:20:48+00:00,,,12,C,780,596.2579250335693,YES,1,INCONGRUENT,NO,0,B
ADMIN-UCSF-BK008,2018-01-30 21:35:55+00:00,2018-02-02 21:20:48+00:00,,,13,B,740,680.6789636611938,NO,1,INCONGRUENT,YES,0,C
ADMIN-UCSF-BK008,2018-01-30 21:35:55+00:00,2018-02-02 21:20:48+00:00,,,14,A,660,606.2599420547485,YES,0,INCONGRUENT,NO,0,D
ADMIN-UCSF-BK008,2018-01-30 21:35:55+00:00,2018-02-02 21:20:48+00:00,,,15,C,680,547.8109121322632,NO,1,CONGRUENT,YES,0,C
ADMIN-UCSF-BK008,2018-01-30 21:35:55+00:00,2018-02-02 21:20:48+00:00,,,16,B,700,797.9170083999634,NO,1,INCONGRUENT,YES,1,C
ADMIN-UCSF-BK008,2018-01-30 21:35:55+00:00,2018-02-02 21:20:48+00:00,,,17,C,690,631.9589614868164,YES,1,INCONGRUENT,NO,0,B
ADMIN-UCSF-BK008,2018-01-30 21:35:55+00:00,2018-02-02 21:20:48+00:00,,,18,D,520,565.290093421936,NO,1,CONGRUENT,YES,1,D
ADMIN-UCSF-BK008,2018-01-30 21:35:55+00:00,2018-02-02 21:20:48+00:00,,,19,C,510,725.0609397888184,NO,1,CONGRUENT,YES,1,C
ADMIN-UCSF-BK008,2018-01-30 21:35:55+00:00,2018-02-02 21:20:48+00:00,,,20,C,680,692.8319931030273,YES,1,INCONGRUENT,NO,1,B
ADMIN-UCSF-BK008,2018-01-30 21:35:55+00:00,2018-02-02 21:20:48+00:00,,,21,C,670,605.9670448303223,YES,1,INCONGRUENT,NO,0,B
ADMIN-UCSF-BK008,2018-01-30 21:35:55+00:00,2018-02-02 21:20:48+00:00,,,22,D,500,487.47408390045166,NO,1,CONGRUENT,YES,0,D
ADMIN-UCSF-BK008,2018-01-30 21:35:55+00:00,2018-02-02 21:20:48+00:00,,,23,A,660,442.221999168396,YES,0,INCONGRUENT,NO,0,C
ADMIN-UCSF-BK008,2018-01-30 21:35:55+00:00,2018-02-02 21:20:48+00:00,,,24,B,490,545.6579923629761,YES,1,CONGRUENT,NO,1,B
ADMIN-UCSF-BK008,2018-01-30 21:35:55+00:00,2018-02-02 21:20:48+00:00,,,25,A,480,565.5699968338013,YES,1,CONGRUENT,NO,1,A
ADMIN-UCSF-BK008,2018-01-30 21:35:55+00:00,2018-02-02 21:20:48+00:00,,,26,A,700,479.8940420150757,NO,1,INCONGRUENT,YES,0,C
ADMIN-UCSF-BK008,2018-01-30 21:35:55+00:00,2018-02-02 21:20:48+00:00,,,27,C,690,529.2049646377563,YES,1,INCONGRUENT,NO,0,A
ADMIN-UCSF-BK008,2018-01-30 21:35:55+00:00,2018-02-02 21:20:48+00:00,,,28,D,470,585.8919620513916,NO,1,CONGRUENT,YES,1,D
ADMIN-UCSF-BK008,2018-01-30 21:35:55+00:00,2018-02-02 21:20:48+00:00,,,29,A,460,394.8709964752197,YES,1,CONGRUENT,NO,0,A
ADMIN-UCSF-BK008,2018-01-30 21:35:55+00:00,2018-02-02 21:20:48+00:00,,,30,C,680,553.7389516830444,NO,0,INCONGRUENT,YES,0,B
ADMIN-UCSF-BK008,2018-01-30 21:35:55+00:00,2018-02-02 21:20:48+00:00,,,31,A,450,222.01001644134521,NO,0,CONGRUENT,YES,0,A
ADMIN-UCSF-BK008,2018-01-30 21:35:55+00:00,2018-02-02 21:20:48+00:00,,,32,B,490,N/A,NO,0,CONGRUENT,NO,1,B
ADMIN-UCSF-BK008,2018-01-30 21:35:55+00:00,2018-02-02 21:20:48+00:00,,,33,A,530,566.7059421539307,YES,1,CONGRUENT,NO,1,A
ADMIN-UCSF-BK008,2018-01-30 21:35:55+00:00,2018-02-02 21:20:48+00:00,,,34,D,720,682.9730272293091,YES,1,INCONGRUENT,NO,0,B
ADMIN-UCSF-BK008,2018-01-30 21:35:55+00:00,2018-02-02 21:20:48+00:00,,,35,A,520,467.2600030899048,YES,1,CONGRUENT,NO,0,A
ADMIN-UCSF-BK008,2018-01-30 21:35:55+00:00,2018-02-02 21:20:48+00:00,,,36,A,710,574.6480226516724,NO,1,INCONGRUENT,YES,0,D
ADMIN-UCSF-BK008,2018-01-30 21:35:55+00:00,2018-02-02 21:20:48+00:00,,,37,A,510,373.07798862457275,YES,1,CONGRUENT,NO,0,A
ADMIN-UCSF-BK008,2018-01-30 21:35:55+00:00,2018-02-02 21:20:48+00:00,,,38,A,500,534.9600315093994,YES,1,CONGRUENT,NO,1,A
ADMIN-UCSF-BK008,2018-01-30 21:35:55+00:00,2018-02-02 21:20:48+00:00,,,39,B,700,806.0020208358765,NO,1,INCONGRUENT,YES,1,C
ADMIN-UCSF-BK008,2018-01-30 21:35:55+00:00,2018-02-02 21:20:48+00:00,,,40,C,490,549.0020513534546,NO,1,CONGRUENT,YES,1,C
ADMIN-UCSF-BK008,2018-01-30 21:35:55+00:00,2018-02-02 21:20:48+00:00,,,41,A,690,519.5659399032593,NO,1,INCONGRUENT,YES,0,D
ADMIN-UCSF-BK008,2018-01-30 21:35:55+00:00,2018-02-02 21:20:48+00:00,,,42,C,480,729.483962059021,NO,1,CONGRUENT,YES,1,C
ADMIN-UCSF-BK008,2018-01-30 21:35:55+00:00,2018-02-02 21:20:48+00:00,,,43,A,470,491.2109375,YES,1,CONGRUENT,NO,1,A
ADMIN-UCSF-BK008,2018-01-30 21:35:55+00:00,2018-02-02 21:20:48+00:00,,,44,A,680,594.9479341506958,NO,1,INCONGRUENT,YES,0,D
ADMIN-UCSF-BK008,2018-01-30 21:35:55+00:00,2018-02-02 21:20:48+00:00,,,45,B,670,821.5680122375488,NO,1,INCONGRUENT,YES,1,C
ADMIN-UCSF-BK008,2018-01-30 21:35:55+00:00,2018-02-02 21:20:48+00:00,,,46,C,660,812.2249841690063,YES,1,INCONGRUENT,NO,1,A
ADMIN-UCSF-BK008,2018-01-30 21:35:55+00:00,2018-02-02 21:20:48+00:00,,,47,C,460,699.1759538650513,NO,1,CONGRUENT,YES,1,C
ADMIN-UCSF-BK008,2018-01-30 21:35:55+00:00,2018-02-02 21:20:48+00:00,,,48,D,450,664.5400524139404,NO,1,CONGRUENT,YES,1,D
ADMIN-UCSF-BK008,2018-01-30 21:35:55+00:00,2018-02-02 21:20:48+00:00,,,49,A,650,813.1120204925537,NO,1,INCONGRUENT,YES,1,D
ADMIN-UCSF-BK010,2018-01-30 22:02:05+00:00,2018-02-02 21:20:48+00:00,,,0,A,800,564.1030073165894,YES,1,CONGRUENT,NO,0,A
ADMIN-UCSF-BK010,2018-01-30 22:02:05+00:00,2018-02-02 21:20:48+00:00,,,1,C,800,575.9940147399902,NO,0,INCONGRUENT,YES,0,B
ADMIN-UCSF-BK010,2018-01-30 22:02:05+00:00,2018-02-02 21:20:48+00:00,,,2,A,790,386.3149881362915,YES,1,CONGRUENT,NO,0,A
ADMIN-UCSF-BK010,2018-01-30 22:02:05+00:00,2018-02-02 21:20:48+00:00,,,3,B,840,566.5520429611206,NO,1,INCONGRUENT,YES,0,D
ADMIN-UCSF-BK010,2018-01-30 22:02:05+00:00,2018-02-02 21:20:48+00:00,,,4,D,830,576.7320394515991,YES,1,INCONGRUENT,NO,0,B
ADMIN-UCSF-BK010,2018-01-30 22:02:05+00:00,2018-02-02 21:20:48+00:00,,,5,C,820,649.5040655136108,YES,1,INCONGRUENT,NO,0,A
ADMIN-UCSF-BK010,2018-01-30 22:02:05+00:00,2018-02-02 21:20:48+00:00,,,6,B,800,650.1410007476807,NO,1,INCONGRUENT,YES,0,C
ADMIN-UCSF-BK010,2018-01-30 22:02:05+00:00,2018-02-02 21:20:48+00:00,,,7,B,780,532.1379899978638,YES,1,CONGRUENT,NO,0,B
ADMIN-UCSF-BK010,2018-01-30 22:02:05+00:00,2018-02-02 21:20:48+00:00,,,8,B,760,510.4459524154663,YES,1,CONGRUENT,NO,0,B
ADMIN-UCSF-BK010,2018-01-30 22:02:05+00:00,2018-02-02 21:20:48+00:00,,,9,D,760,431.72502517700195,YES,1,INCONGRUENT,NO,0,B
ADMIN-UCSF-BK010,2018-01-30 22:02:05+00:00,2018-02-02 21:20:48+00:00,,,10,C,680,459.2719078063965,YES,1,INCONGRUENT,NO,0,A
ADMIN-UCSF-BK010,2018-01-30 22:02:05+00:00,2018-02-02 21:20:48+00:00,,,11,A,520,506.82902336120605,NO,1,INCONGRUENT,YES,0,C
ADMIN-UCSF-BK010,2018-01-30 22:02:05+00:00,2018-02-02 21:20:48+00:00,,,12,A,200,385.90502738952637,NO,1,INCONGRUENT,YES,1,C
ADMIN-UCSF-BK010,2018-01-30 22:02:05+00:00,2018-02-02 21:20:48+00:00,,,13,A,720,417.2760248184204,YES,1,CONGRUENT,NO,0,A
ADMIN-UCSF-BK010,2018-01-30 22:02:05+00:00,2018-02-02 21:20:48+00:00,,,14,A,190,458.3559036254883,NO,1,INCONGRUENT,YES,1,C
ADMIN-UCSF-BK010,2018-01-30 22:02:05+00:00,2018-02-02 21:20:48+00:00,,,15,A,180,675.9339570999146,NO,1,INCONGRUENT,YES,1,C
ADMIN-UCSF-BK010,2018-01-30 22:02:05+00:00,2018-02-02 21:20:48+00:00,,,16,A,170,514.1810178756714,NO,1,INCONGRUENT,YES,1,C
ADMIN-UCSF-BK010,2018-01-30 22:02:05+00:00,2018-02-02 21:20:48+00:00,,,17,C,640,405.892014503479,NO,1,CONGRUENT,YES,0,C
ADMIN-UCSF-BK010,2018-01-30 22:02:05+00:00,2018-02-02 21:20:48+00:00,,,18,B,160,500.31495094299316,NO,1,INCONGRUENT,YES,1,C
ADMIN-UCSF-BK010,2018-01-30 22:02:05+00:00,2018-02-02 21:20:48+00:00,,,19,D,480,548.3869314193726,NO,1,CONGRUENT,YES,1,D
ADMIN-UCSF-BK010,2018-01-30 22:02:05+00:00,2018-02-02 21:20:48+00:00,,,20,B,470,415.13800621032715,YES,1,CONGRUENT,NO,0,B
ADMIN-UCSF-BK010,2018-01-30 22:02:05+00:00,2018-02-02 21:20:48+00:00,,,21,C,150,410.4340076446533,NO,0,INCONGRUENT,YES,1,B
ADMIN-UCSF-BK010,2018-01-30 22:02:05+00:00,2018-02-02 21:20:48+00:00,,,22,C,460,489.1239404678345,YES,0,CONGRUENT,NO,1,C
ADMIN-UCSF-BK010,2018-01-30 22:02:05+00:00,2018-02-02 21:20:48+00:00,,,23,C,500,450.92809200286865,NO,1,CONGRUENT,YES,0,C
ADMIN-UCSF-BK010,2018-01-30 22:02:05+00:00,2018-02-02 21:20:48+00:00,,,24,A,490,470.91400623321533,YES,1,CONGRUENT,NO,0,A
ADMIN-UCSF-BK010,2018-01-30 22:02:05+00:00,2018-02-02 21:20:48+00:00,,,25,C,790,530.8419466018677,YES,1,INCONGRUENT,NO,0,A
ADMIN-UCSF-BK010,2018-01-30 22:02:05+00:00,2018-02-02 21:20:48+00:00,,,26,B,480,493.7170743942261,NO,0,CONGRUENT,YES,1,B
ADMIN-UCSF-BK010,2018-01-30 22:02:05+00:00,2018-02-02 21:20:48+00:00,,,27,D,780,613.1610870361328,YES,1,INCONGRUENT,NO,0,A
ADMIN-UCSF-BK010,2018-01-30 22:02:05+00:00,2018-02-02 21:20:48+00:00,,,28,B,770,428.4709692001343,NO,1,INCONGRUENT,YES,0,D
ADMIN-UCSF-BK010,2018-01-30 22:02:05+00:00,2018-02-02 21:20:48+00:00,,,29,C,750,477.2580862045288,YES,1,INCONGRUENT,NO,0,B
ADMIN-UCSF-BK010,2018-01-30 22:02:05+00:00,2018-02-02 21:20:48+00:00,,,30,C,520,603.3550500869751,NO,1,CONGRUENT,YES,1,C
ADMIN-UCSF-BK010,2018-01-30 22:02:05+00:00,2018-02-02 21:20:48+00:00,,,31,A,510,438.8960599899292,YES,1,CONGRUENT,NO,0,A
ADMIN-UCSF-BK010,2018-01-30 22:02:05+00:00,2018-02-02 21:20:48+00:00,,,32,A,500,383.8930130004883,YES,1,CONGRUENT,NO,0,A
ADMIN-UCSF-BK010,2018-01-30 22:02:05+00:00,2018-02-02 21:20:48+00:00,,,33,A,490,457.9789638519287,YES,1,CONGRUENT,NO,0,A
ADMIN-UCSF-BK010,2018-01-30 22:02:05+00:00,2018-02-02 21:20:48+00:00,,,34,D,470,407.05394744873047,NO,1,CONGRUENT,YES,0,D
ADMIN-UCSF-BK010,2018-01-30 22:02:05+00:00,2018-02-02 21:20:48+00:00,,,35,D,710,439.9580955505371,YES,1,INCONGRUENT,NO,0,B
ADMIN-UCSF-BK010,2018-01-30 22:02:05+00:00,2018-02-02 21:20:48+00:00,,,36,A,630,457.521915435791,NO,1,INCONGRUENT,YES,0,D
ADMIN-UCSF-BK010,2018-01-30 22:02:05+00:00,2018-02-02 21:20:48+00:00,,,37,D,430,409.15000438690186,NO,1,CONGRUENT,YES,0,D
ADMIN-UCSF-BK010,2018-01-30 22:02:05+00:00,2018-02-02 21:20:48+00:00,,,38,B,350,507.88700580596924,YES,1,CONGRUENT,NO,1,B
ADMIN-UCSF-BK010,2018-01-30 22:02:05+00:00,2018-02-02 21:20:48+00:00,,,39,A,470,590.7120704650879,NO,1,INCONGRUENT,YES,1,C
ADMIN-UCSF-BK010,2018-01-30 22:02:05+00:00,2018-02-02 21:20:48+00:00,,,40,A,340,400.00104904174805,YES,1,CONGRUENT,NO,1,A
ADMIN-UCSF-BK010,2018-01-30 22:02:05+00:00,2018-02-02 21:20:48+00:00,,,41,C,460,530.9580564498901,YES,1,INCONGRUENT,NO,1,B
ADMIN-UCSF-BK010,2018-01-30 22:02:05+00:00,2018-02-02 21:20:48+00:00,,,42,B,450,465.3080701828003,NO,1,INCONGRUENT,YES,1,D
ADMIN-UCSF-BK010,2018-01-30 22:02:05+00:00,2018-02-02 21:20:48+00:00,,,43,C,330,490.3390407562256,YES,0,CONGRUENT,NO,1,C
ADMIN-UCSF-BK010,2018-01-30 22:02:05+00:00,2018-02-02 21:20:48+00:00,,,44,D,410,480.74400424957275,NO,1,CONGRUENT,YES,1,D
ADMIN-UCSF-BK010,2018-01-30 22:02:05+00:00,2018-02-02 21:20:48+00:00,,,45,B,400,517.0899629592896,YES,1,CONGRUENT,NO,1,B
ADMIN-UCSF-BK010,2018-01-30 22:02:05+00:00,2018-02-02 21:20:48+00:00,,,46,A,390,N/A,NO,0,CONGRUENT,NO,1,A
ADMIN-UCSF-BK010,2018-01-30 22:02:05+00:00,2018-02-02 21:20:48+00:00,,,47,C,440,535.8470678329468,YES,1,INCONGRUENT,NO,1,B
ADMIN-UCSF-BK010,2018-01-30 22:02:05+00:00,2018-02-02 21:20:48+00:00,,,48,D,1030,447.3210573196411,NO,1,CONGRUENT,YES,0,D
ADMIN-UCSF-BK010,2018-01-30 22:02:05+00:00,2018-02-02 21:20:48+00:00,,,49,D,430,424.60906505584717,YES,1,INCONGRUENT,NO,0,A
ADMIN-UCSF-BK009,2018-02-02 20:50:19+00:00,2018-02-08 17:29:42+00:00,,,0,D,800,629.491925239563,NO,1,CONGRUENT,YES,0,D
ADMIN-UCSF-BK009,2018-02-02 20:50:19+00:00,2018-02-08 17:29:42+00:00,,,1,D,790,572.8930234909058,NO,1,CONGRUENT,YES,0,D
ADMIN-UCSF-BK009,2018-02-02 20:50:19+00:00,2018-02-08 17:29:42+00:00,,,2,A,780,N/A,NO,0,CONGRUENT,NO,1,A
ADMIN-UCSF-BK009,2018-02-02 20:50:19+00:00,2018-02-08 17:29:42+00:00,,,3,C,820,541.3289070129395,NO,1,CONGRUENT,YES,0,C
ADMIN-UCSF-BK009,2018-02-02 20:50:19+00:00,2018-02-08 17:29:42+00:00,,,4,D,800,682.7460527420044,YES,1,INCONGRUENT,NO,0,B
ADMIN-UCSF-BK009,2018-02-02 20:50:19+00:00,2018-02-08 17:29:42+00:00,,,5,D,790,N/A,NO,0,INCONGRUENT,NO,1,B
ADMIN-UCSF-BK009,2018-02-02 20:50:19+00:00,2018-02-08 17:29:42+00:00,,,6,D,830,N/A,NO,0,INCONGRUENT,NO,0,A
ADMIN-UCSF-BK009,2018-02-02 20:50:19+00:00,2018-02-08 17:29:42+00:00,,,7,B,810,532.4690341949463,NO,0,CONGRUENT,YES,0,B
ADMIN-UCSF-BK009,2018-02-02 20:50:19+00:00,2018-02-08 17:29:42+00:00,,,8,D,850,719.2020416259766,NO,1,CONGRUENT,YES,0,D
ADMIN-UCSF-BK009,2018-02-02 20:50:19+00:00,2018-02-08 17:29:42+00:00,,,9,A,870,642.2439813613892,NO,1,INCONGRUENT,YES,0,D
ADMIN-UCSF-BK009,2018-02-02 20:50:19+00:00,2018-02-08 17:29:42+00:00,,,10,A,840,680.0259351730347,YES,1,CONGRUENT,NO,0,A
ADMIN-UCSF-BK009,2018-02-02 20:50:19+00:00,2018-02-08 17:29:42+00:00,,,11,B,860,N/A,NO,0,INCONGRUENT,NO,1,D
ADMIN-UCSF-BK009,2018-02-02 20:50:19+00:00,2018-02-08 17:29:42+00:00,,,12,B,830,682.2439432144165,YES,1,CONGRUENT,NO,0,B
ADMIN-UCSF-BK009,2018-02-02 20:50:19+00:00,2018-02-08 17:29:42+00:00,,,13,C,810,749.0429878234863,NO,1,CONGRUENT,YES,0,C
ADMIN-UCSF-BK009,2018-02-02 20:50:19+00:00,2018-02-08 17:29:42+00:00,,,14,B,900,876.7490386962891,NO,1,INCONGRUENT,YES,0,D
ADMIN-UCSF-BK009,2018-02-02 20:50:19+00:00,2018-02-08 17:29:42+00:00,,,15,B,890,705.1589488983154,NO,1,INCONGRUENT,YES,0,D
ADMIN-UCSF-BK009,2018-02-02 20:50:19+00:00,2018-02-08 17:29:42+00:00,,,16,C,880,724.763035774231,YES,1,INCONGRUENT,NO,0,A
ADMIN-UCSF-BK009,2018-02-02 20:50:19+00:00,2018-02-08 17:29:42+00:00,,,17,D,860,764.1289234161377,NO,0,INCONGRUENT,YES,0,A
ADMIN-UCSF-BK009,2018-02-02 20:50:19+00:00,2018-02-08 17:29:42+00:00,,,18,A,770,709.4449996948242,YES,1,CONGRUENT,NO,0,A
ADMIN-UCSF-BK009,2018-02-02 20:50:19+00:00,2018-02-08 17:29:42+00:00,,,19,A,900,846.4620113372803,NO,1,INCONGRUENT,YES,0,D
ADMIN-UCSF-BK009,2018-02-02 20:50:19+00:00,2018-02-08 17:29:42+00:00,,,20,B,890,790.0279760360718,NO,1,INCONGRUENT,YES,0,D
ADMIN-UCSF-BK009,2018-02-02 20:50:19+00:00,2018-02-08 17:29:42+00:00,,,21,B,690,722.801923751831,YES,1,CONGRUENT,NO,1,B
ADMIN-UCSF-BK009,2018-02-02 20:50:19+00:00,2018-02-08 17:29:42+00:00,,,22,B,680,689.5139217376709,YES,1,CONGRUENT,NO,1,B
ADMIN-UCSF-BK009,2018-02-02 20:50:19+00:00,2018-02-08 17:29:42+00:00,,,23,B,880,755.1920413970947,NO,1,INCONGRUENT,YES,0,D
ADMIN-UCSF-BK009,2018-02-02 20:50:19+00:00,2018-02-08 17:29:42+00:00,,,24,C,670,719.7259664535522,YES,0,CONGRUENT,NO,1,C
ADMIN-UCSF-BK009,2018-02-02 20:50:19+00:00,2018-02-08 17:29:42+00:00,,,25,D,860,560.5770349502563,YES,1,INCONGRUENT,NO,0,A
ADMIN-UCSF-BK009,2018-02-02 20:50:19+00:00,2018-02-08 17:29:42+00:00,,,26,A,750,528.1760692596436,YES,1,CONGRUENT,NO,0,A
ADMIN-UCSF-BK009,2018-02-02 20:50:19+00:00,2018-02-08 17:29:42+00:00,,,27,C,820,715.2119874954224,YES,1,INCONGRUENT,NO,0,B
ADMIN-UCSF-BK009,2018-02-02 20:50:19+00:00,2018-02-08 17:29:42+00:00,,,28,B,740,703.1190395355225,NO,1,INCONGRUENT,YES,0,D
ADMIN-UCSF-BK009,2018-02-02 20:50:19+00:00,2018-02-08 17:29:42+00:00,,,29,C,580,604.3100357055664,YES,1,INCONGRUENT,NO,1,A
ADMIN-UCSF-BK009,2018-02-02 20:50:19+00:00,2018-02-08 17:29:42+00:00,,,30,B,740,611.4820241928101,NO,0,CONGRUENT,YES,0,B
ADMIN-UCSF-BK009,2018-02-02 20:50:19+00:00,2018-02-08 17:29:42+00:00,,,31,B,570,758.1009864807129,NO,1,INCONGRUENT,YES,1,D
ADMIN-UCSF-BK009,2018-02-02 20:50:19+00:00,2018-02-08 17:29:42+00:00,,,32,B,780,467.3670530319214,YES,1,CONGRUENT,NO,0,B
ADMIN-UCSF-BK009,2018-02-02 20:50:19+00:00,2018-02-08 17:29:42+00:00,,,33,B,770,638.8059854507446,YES,1,CONGRUENT,NO,0,B
ADMIN-UCSF-BK009,2018-02-02 20:50:19+00:00,2018-02-08 17:29:42+00:00,,,34,B,760,606.4549684524536,YES,1,CONGRUENT,NO,0,B
ADMIN-UCSF-BK009,2018-02-02 20:50:19+00:00,2018-02-08 17:29:42+00:00,,,35,A,560,653.2019376754761,NO,1,INCONGRUENT,YES,1,D
ADMIN-UCSF-BK009,2018-02-02 20:50:19+00:00,2018-02-08 17:29:42+00:00,,,36,A,550,675.3450632095337,NO,1,INCONGRUENT,YES,1,D
ADMIN-UCSF-BK009,2018-02-02 20:50:19+00:00,2018-02-08 17:29:42+00:00,,,37,B,740,592.8800106048584,YES,1,CONGRUENT,NO,0,B
ADMIN-UCSF-BK009,2018-02-02 20:50:19+00:00,2018-02-08 17:29:42+00:00,,,38,A,700,439.1590356826782,YES,1,CONGRUENT,NO,0,A
ADMIN-UCSF-BK009,2018-02-02 20:50:19+00:00,2018-02-08 17:29:42+00:00,,,39,D,620,461.63105964660645,NO,1,CONGRUENT,YES,0,D
ADMIN-UCSF-BK009,2018-02-02 20:50:19+00:00,2018-02-08 17:29:42+00:00,,,40,D,460,624.8699426651001,NO,1,CONGRUENT,YES,1,D
ADMIN-UCSF-BK009,2018-02-02 20:50:19+00:00,2018-02-08 17:29:42+00:00,,,41,D,450,497.5090026855469,NO,1,CONGRUENT,YES,1,D
ADMIN-UCSF-BK009,2018-02-02 20:50:19+00:00,2018-02-08 17:29:42+00:00,,,42,A,440,741.7759895324707,YES,1,CONGRUENT,NO,1,A
ADMIN-UCSF-BK009,2018-02-02 20:50:19+00:00,2018-02-08 17:29:42+00:00,,,43,C,540,N/A,NO,0,INCONGRUENT,NO,1,A
ADMIN-UCSF-BK009,2018-02-02 20:50:19+00:00,2018-02-08 17:29:42+00:00,,,44,A,860,606.8230867385864,NO,1,INCONGRUENT,YES,0,C
ADMIN-UCSF-BK009,2018-02-02 20:50:19+00:00,2018-02-08 17:29:42+00:00,,,45,B,850,566.0339593887329,YES,0,INCONGRUENT,NO,0,C
ADMIN-UCSF-BK009,2018-02-02 20:50:19+00:00,2018-02-08 17:29:42+00:00,,,46,C,890,620.5159425735474,YES,1,INCONGRUENT,NO,0,B
ADMIN-UCSF-BK009,2018-02-02 20:50:19+00:00,2018-02-08 17:29:42+00:00,,,47,B,430,849.3410348892212,YES,1,CONGRUENT,NO,1,B
ADMIN-UCSF-BK009,2018-02-02 20:50:19+00:00,2018-02-08 17:29:42+00:00,,,48,D,880,730.1539182662964,YES,1,INCONGRUENT,NO,0,A
ADMIN-UCSF-BK009,2018-02-02 20:50:19+00:00,2018-02-08 17:29:42+00:00,,,49,C,870,681.3019514083862,YES,1,INCONGRUENT,NO,0,B
ADMIN-UCSF-BK014,2018-02-02 22:00:20+00:00,2018-02-08 17:29:42+00:00,,,0,A,800,N/A,NO,0,CONGRUENT,NO,0,A
ADMIN-UCSF-BK014,2018-02-02 22:00:20+00:00,2018-02-08 17:29:42+00:00,,,1,C,800,N/A,NO,0,INCONGRUENT,NO,0,B
ADMIN-UCSF-BK014,2018-02-02 22:00:20+00:00,2018-02-08 17:29:42+00:00,,,2,B,840,612.5069856643677,NO,1,INCONGRUENT,YES,0,D
ADMIN-UCSF-BK014,2018-02-02 22:00:20+00:00,2018-02-08 17:29:42+00:00,,,3,A,830,736.1449003219604,NO,1,INCONGRUENT,YES,0,D
ADMIN-UCSF-BK014,2018-02-02 22:00:20+00:00,2018-02-08 17:29:42+00:00,,,4,A,840,N/A,NO,0,CONGRUENT,NO,0,A
ADMIN-UCSF-BK014,2018-02-02 22:00:20+00:00,2018-02-08 17:29:42+00:00,,,5,A,880,589.1599655151367,YES,1,CONGRUENT,NO,0,A
ADMIN-UCSF-BK014,2018-02-02 22:00:20+00:00,2018-02-08 17:29:42+00:00,,,6,D,870,653.6200046539307,NO,1,CONGRUENT,YES,0,D
ADMIN-UCSF-BK014,2018-02-02 22:00:20+00:00,2018-02-08 17:29:42+00:00,,,7,D,820,796.7429161071777,YES,1,INCONGRUENT,NO,0,B
ADMIN-UCSF-BK014,2018-02-02 22:00:20+00:00,2018-02-08 17:29:42+00:00,,,8,C,860,N/A,NO,0,CONGRUENT,NO,1,C
ADMIN-UCSF-BK014,2018-02-02 22:00:20+00:00,2018-02-08 17:29:42+00:00,,,9,B,900,N/A,NO,0,CONGRUENT,NO,0,B
ADMIN-UCSF-BK014,2018-02-02 22:00:20+00:00,2018-02-08 17:29:42+00:00,,,10,D,940,N/A,NO,0,CONGRUENT,NO,0,D
ADMIN-UCSF-BK014,2018-02-02 22:00:20+00:00,2018-02-08 17:29:42+00:00,,,11,A,1020,545.8860397338867,YES,1,CONGRUENT,NO,0,A
ADMIN-UCSF-BK014,2018-02-02 22:00:20+00:00,2018-02-08 17:29:42+00:00,,,12,C,800,794.1190004348755,YES,1,INCONGRUENT,NO,0,A
ADMIN-UCSF-BK014,2018-02-02 22:00:20+00:00,2018-02-08 17:29:42+00:00,,,13,C,1010,767.7689790725708,NO,1,CONGRUENT,YES,0,C
ADMIN-UCSF-BK014,2018-02-02 22:00:20+00:00,2018-02-08 17:29:42+00:00,,,14,C,760,615.0859594345093,YES,1,INCONGRUENT,NO,0,B
ADMIN-UCSF-BK014,2018-02-02 22:00:20+00:00,2018-02-08 17:29:42+00:00,,,15,B,680,872.4620342254639,NO,1,INCONGRUENT,YES,1,D
ADMIN-UCSF-BK014,2018-02-02 22:00:20+00:00,2018-02-08 17:29:42+00:00,,,16,A,670,570.7420110702515,YES,0,INCONGRUENT,NO,0,C
ADMIN-UCSF-BK014,2018-02-02 22:00:20+00:00,2018-02-08 17:29:42+00:00,,,17,B,1000,931.4690828323364,YES,1,CONGRUENT,NO,0,B
ADMIN-UCSF-BK014,2018-02-02 22:00:20+00:00,2018-02-08 17:29:42+00:00,,,18,A,980,678.3649921417236,NO,0,CONGRUENT,YES,0,A
ADMIN-UCSF-BK014,2018-02-02 22:00:20+00:00,2018-02-08 17:29:42+00:00,,,19,B,1020,780.7250022888184,YES,1,CONGRUENT,NO,0,B
ADMIN-UCSF-BK014,2018-02-02 22:00:20+00:00,2018-02-08 17:29:42+00:00,,,20,D,1010,709.3110084533691,NO,1,CONGRUENT,YES,0,D
ADMIN-UCSF-BK014,2018-02-02 22:00:20+00:00,2018-02-08 17:29:42+00:00,,,21,D,1000,N/A,NO,0,CONGRUENT,NO,1,D
ADMIN-UCSF-BK014,2018-02-02 22:00:20+00:00,2018-02-08 17:29:42+00:00,,,22,A,1040,503.95095348358154,YES,1,CONGRUENT,NO,0,A
ADMIN-UCSF-BK014,2018-02-02 22:00:20+00:00,2018-02-08 17:29:42+00:00,,,23,D,1030,N/A,NO,0,CONGRUENT,NO,1,D
ADMIN-UCSF-BK014,2018-02-02 22:00:20+00:00,2018-02-08 17:29:42+00:00,,,24,B,710,812.250018119812,YES,0,INCONGRUENT,NO,1,C
ADMIN-UCSF-BK014,2018-02-02 22:00:20+00:00,2018-02-08 17:29:42+00:00,,,25,B,1070,N/A,NO,0,CONGRUENT,NO,0,B
ADMIN-UCSF-BK014,2018-02-02 22:00:20+00:00,2018-02-08 17:29:42+00:00,,,26,D,790,886.5939378738403,YES,1,INCONGRUENT,NO,1,B
ADMIN-UCSF-BK014,2018-02-02 22:00:20+00:00,2018-02-08 17:29:42+00:00,,,27,C,780,718.0770635604858,YES,1,INCONGRUENT,NO,0,B
ADMIN-UCSF-BK014,2018-02-02 22:00:20+00:00,2018-02-08 17:29:42+00:00,,,28,C,1110,717.9480791091919,NO,1,CONGRUENT,YES,0,C
ADMIN-UCSF-BK014,2018-02-02 22:00:20+00:00,2018-02-08 17:29:42+00:00,,,29,A,1100,541.7779684066772,YES,1,CONGRUENT,NO,0,A
ADMIN-UCSF-BK014,2018-02-02 22:00:20+00:00,2018-02-08 17:29:42+00:00,,,30,C,770,516.7030096054077,NO,0,INCONGRUENT,YES,0,B
ADMIN-UCSF-BK014,2018-02-02 22:00:20+00:00,2018-02-08 17:29:42+00:00,,,31,A,810,727.0619869232178,NO,1,INCONGRUENT,YES,0,D
ADMIN-UCSF-BK014,2018-02-02 22:00:20+00:00,2018-02-08 17:29:42+00:00,,,32,D,800,831.7359685897827,YES,1,INCONGRUENT,NO,1,B
ADMIN-UCSF-BK014,2018-02-02 22:00:20+00:00,2018-02-08 17:29:42+00:00,,,33,C,1090,948.5160112380981,NO,1,CONGRUENT,YES,0,C
ADMIN-UCSF-BK014,2018-02-02 22:00:20+00:00,2018-02-08 17:29:42+00:00,,,34,C,790,718.6070680618286,YES,1,INCONGRUENT,NO,0,B
ADMIN-UCSF-BK014,2018-02-02 22:00:20+00:00,2018-02-08 17:29:42+00:00,,,35,B,1070,592.3869609832764,YES,1,CONGRUENT,NO,0,B
ADMIN-UCSF-BK014,2018-02-02 22:00:20+00:00,2018-02-08 17:29:42+00:00,,,36,A,1030,564.9819374084473,YES,1,CONGRUENT,NO,0,A
ADMIN-UCSF-BK014,2018-02-02 22:00:20+00:00,2018-02-08 17:29:42+00:00,,,37,A,950,641.3030624389648,YES,1,CONGRUENT,NO,0,A
ADMIN-UCSF-BK014,2018-02-02 22:00:20+00:00,2018-02-08 17:29:42+00:00,,,38,C,780,723.0149507522583,YES,1,INCONGRUENT,NO,0,A
ADMIN-UCSF-BK014,2018-02-02 22:00:20+00:00,2018-02-08 17:29:42+00:00,,,39,A,770,878.7729740142822,NO,1,INCONGRUENT,YES,1,C
ADMIN-UCSF-BK014,2018-02-02 22:00:20+00:00,2018-02-08 17:29:42+00:00,,,40,C,760,N/A,NO,0,INCONGRUENT,NO,1,B
ADMIN-UCSF-BK014,2018-02-02 22:00:20+00:00,2018-02-08 17:29:42+00:00,,,41,C,790,504.35101985931396,NO,1,CONGRUENT,YES,0,C
ADMIN-UCSF-BK014,2018-02-02 22:00:20+00:00,2018-02-08 17:29:42+00:00,,,42,A,800,688.8159513473511,NO,1,INCONGRUENT,YES,0,C
ADMIN-UCSF-BK014,2018-02-02 22:00:20+00:00,2018-02-08 17:29:42+00:00,,,43,D,790,805.3410053253174,YES,1,INCONGRUENT,NO,1,B
ADMIN-UCSF-BK014,2018-02-02 22:00:20+00:00,2018-02-08 17:29:42+00:00,,,44,A,780,749.1680383682251,NO,1,INCONGRUENT,YES,0,C
ADMIN-UCSF-BK014,2018-02-02 22:00:20+00:00,2018-02-08 17:29:42+00:00,,,45,C,770,670.9370613098145,YES,1,INCONGRUENT,NO,0,B
ADMIN-UCSF-BK014,2018-02-02 22:00:20+00:00,2018-02-08 17:29:42+00:00,,,46,B,760,745.263934135437,NO,1,INCONGRUENT,YES,0,C
ADMIN-UCSF-BK014,2018-02-02 22:00:20+00:00,2018-02-08 17:29:42+00:00,,,47,A,740,850.5679368972778,NO,1,INCONGRUENT,YES,1,D
ADMIN-UCSF-BK014,2018-02-02 22:00:20+00:00,2018-02-08 17:29:42+00:00,,,48,B,470,589.5429849624634,YES,1,CONGRUENT,NO,1,B
ADMIN-UCSF-BK014,2018-02-02 22:00:20+00:00,2018-02-08 17:29:42+00:00,,,49,B,730,598.0900526046753,NO,1,INCONGRUENT,YES,0,D
ADMIN-UCSF-BK012,2018-02-02 22:22:14+00:00,2018-02-08 17:29:42+00:00,,,0,B,800,693.2950019836426,YES,1,CONGRUENT,NO,0,B
ADMIN-UCSF-BK012,2018-02-02 22:22:14+00:00,2018-02-08 17:29:42+00:00,,,1,C,800,684.7090721130371,YES,1,INCONGRUENT,NO,0,B
ADMIN-UCSF-BK012,2018-02-02 22:22:14+00:00,2018-02-08 17:29:42+00:00,,,2,C,790,468.77801418304443,YES,1,INCONGRUENT,NO,0,A
ADMIN-UCSF-BK012,2018-02-02 22:22:14+00:00,2018-02-08 17:29:42+00:00,,,3,D,780,600.5599498748779,YES,1,INCONGRUENT,NO,0,A
ADMIN-UCSF-BK012,2018-02-02 22:22:14+00:00,2018-02-08 17:29:42+00:00,,,4,C,790,533.6118936538696,NO,1,CONGRUENT,YES,0,C
ADMIN-UCSF-BK012,2018-02-02 22:22:14+00:00,2018-02-08 17:29:42+00:00,,,5,A,780,374.3569850921631,YES,1,CONGRUENT,NO,0,A
ADMIN-UCSF-BK012,2018-02-02 22:22:14+00:00,2018-02-08 17:29:42+00:00,,,6,D,760,483.57105255126953,NO,1,CONGRUENT,YES,0,D
ADMIN-UCSF-BK012,2018-02-02 22:22:14+00:00,2018-02-08 17:29:42+00:00,,,7,C,760,500.512957572937,YES,1,INCONGRUENT,NO,0,A
ADMIN-UCSF-BK012,2018-02-02 22:22:14+00:00,2018-02-08 17:29:42+00:00,,,8,D,720,465.8850431442261,NO,1,CONGRUENT,YES,0,D
ADMIN-UCSF-BK012,2018-02-02 22:22:14+00:00,2018-02-08 17:29:42+00:00,,,9,A,640,480.43501377105713,YES,1,CONGRUENT,NO,0,A
ADMIN-UCSF-BK012,2018-02-02 22:22:14+00:00,2018-02-08 17:29:42+00:00,,,10,B,720,783.6669683456421,NO,1,INCONGRUENT,YES,1,C
ADMIN-UCSF-BK012,2018-02-02 22:22:14+00:00,2018-02-08 17:29:42+00:00,,,11,B,710,389.7780179977417,YES,0,INCONGRUENT,NO,0,C
ADMIN-UCSF-BK012,2018-02-02 22:22:14+00:00,2018-02-08 17:29:42+00:00,,,12,C,750,N/A,NO,0,INCONGRUENT,NO,1,A
ADMIN-UCSF-BK012,2018-02-02 22:22:14+00:00,2018-02-08 17:29:42+00:00,,,13,B,480,565.9949779510498,NO,0,CONGRUENT,YES,1,B
ADMIN-UCSF-BK012,2018-02-02 22:22:14+00:00,2018-02-08 17:29:42+00:00,,,14,D,520,533.2729816436768,NO,1,CONGRUENT,YES,1,D
ADMIN-UCSF-BK012,2018-02-02 22:22:14+00:00,2018-02-08 17:29:42+00:00,,,15,B,830,586.9709253311157,YES,0,INCONGRUENT,NO,0,C
ADMIN-UCSF-BK012,2018-02-02 22:22:14+00:00,2018-02-08 17:29:42+00:00,,,16,C,510,606.0580015182495,NO,1,CONGRUENT,YES,1,C
ADMIN-UCSF-BK012,2018-02-02 22:22:14+00:00,2018-02-08 17:29:42+00:00,,,17,D,500,N/A,NO,0,CONGRUENT,NO,1,D
ADMIN-UCSF-BK012,2018-02-02 22:22:14+00:00,2018-02-08 17:29:42+00:00,,,18,B,990,604.1790246963501,YES,0,INCONGRUENT,NO,0,C
ADMIN-UCSF-BK012,2018-02-02 22:22:14+00:00,2018-02-08 17:29:42+00:00,,,19,C,1310,681.7179918289185,YES,1,INCONGRUENT,NO,0,A
ADMIN-UCSF-BK012,2018-02-02 22:22:14+00:00,2018-02-08 17:29:42+00:00,,,20,B,1300,514.7889852523804,NO,1,INCONGRUENT,YES,0,D
ADMIN-UCSF-BK012,2018-02-02 22:22:14+00:00,2018-02-08 17:29:42+00:00,,,21,B,660,458.61196517944336,NO,0,CONGRUENT,YES,0,B
ADMIN-UCSF-BK012,2018-02-02 22:22:14+00:00,2018-02-08 17:29:42+00:00,,,22,A,1290,631.1979293823242,YES,0,INCONGRUENT,NO,0,C
ADMIN-UCSF-BK012,2018-02-02 22:22:14+00:00,2018-02-08 17:29:42+00:00,,,23,B,1330,647.8490829467773,NO,1,INCONGRUENT,YES,0,D
ADMIN-UCSF-BK012,2018-02-02 22:22:14+00:00,2018-02-08 17:29:42+00:00,,,24,B,980,788.6899709701538,YES,1,CONGRUENT,NO,0,B
ADMIN-UCSF-BK012,2018-02-02 22:22:14+00:00,2018-02-08 17:29:42+00:00,,,25,A,970,725.6220579147339,YES,1,CONGRUENT,NO,0,A
ADMIN-UCSF-BK012,2018-02-02 22:22:14+00:00,2018-02-08 17:29:42+00:00,,,26,D,1320,522.2519636154175,NO,0,INCONGRUENT,YES,0,B
ADMIN-UCSF-BK012,2018-02-02 22:22:14+00:00,2018-02-08 17:29:42+00:00,,,27,C,1360,1177.3059368133545,YES,1,INCONGRUENT,NO,0,B
ADMIN-UCSF-BK012,2018-02-02 22:22:14+00:00,2018-02-08 17:29:42+00:00,,,28,C,960,745.6250190734863,NO,1,CONGRUENT,YES,0,C
ADMIN-UCSF-BK012,2018-02-02 22:22:14+00:00,2018-02-08 17:29:42+00:00,,,29,C,940,743.7839508056641,NO,1,CONGRUENT,YES,0,C
ADMIN-UCSF-BK012,2018-02-02 22:22:14+00:00,2018-02-08 17:29:42+00:00,,,30,B,900,593.0019617080688,YES,1,CONGRUENT,NO,0,B
ADMIN-UCSF-BK012,2018-02-02 22:22:14+00:00,2018-02-08 17:29:42+00:00,,,31,A,820,508.26406478881836,YES,1,CONGRUENT,NO,0,A
ADMIN-UCSF-BK012,2018-02-02 22:22:14+00:00,2018-02-08 17:29:42+00:00,,,32,D,1350,644.2059278488159,YES,1,INCONGRUENT,NO,0,A
ADMIN-UCSF-BK012,2018-02-02 22:22:14+00:00,2018-02-08 17:29:42+00:00,,,33,B,660,857.591986656189,YES,1,CONGRUENT,NO,1,B
ADMIN-UCSF-BK012,2018-02-02 22:22:14+00:00,2018-02-08 17:29:42+00:00,,,34,D,1340,550.6139993667603,YES,1,INCONGRUENT,NO,0,A
ADMIN-UCSF-BK012,2018-02-02 22:22:14+00:00,2018-02-08 17:29:42+00:00,,,35,A,650,657.9630374908447,YES,1,CONGRUENT,NO,1,A
ADMIN-UCSF-BK012,2018-02-02 22:22:14+00:00,2018-02-08 17:29:42+00:00,,,36,C,1320,616.5720224380493,YES,1,INCONGRUENT,NO,0,B
ADMIN-UCSF-BK012,2018-02-02 22:22:14+00:00,2018-02-08 17:29:42+00:00,,,37,A,640,442.01600551605225,YES,1,CONGRUENT,NO,0,A
ADMIN-UCSF-BK012,2018-02-02 22:22:14+00:00,2018-02-08 17:29:42+00:00,,,38,D,1280,540.3299331665039,YES,1,INCONGRUENT,NO,0,B
ADMIN-UCSF-BK012,2018-02-02 22:22:14+00:00,2018-02-08 17:29:42+00:00,,,39,D,630,406.0850143432617,YES,0,CONGRUENT,NO,0,D
ADMIN-UCSF-BK012,2018-02-02 22:22:14+00:00,2018-02-08 17:29:42+00:00,,,40,A,1200,795.0320243835449,NO,1,INCONGRUENT,YES,0,C
ADMIN-UCSF-BK012,2018-02-02 22:22:14+00:00,2018-02-08 17:29:42+00:00,,,41,C,1040,624.0910291671753,YES,1,INCONGRUENT,NO,0,A
ADMIN-UCSF-BK012,2018-02-02 22:22:14+00:00,2018-02-08 17:29:42+00:00,,,42,D,670,623.2089996337891,NO,1,CONGRUENT,YES,0,D
ADMIN-UCSF-BK012,2018-02-02 22:22:14+00:00,2018-02-08 17:29:42+00:00,,,43,D,720,498.38709831237793,YES,1,INCONGRUENT,NO,0,B
ADMIN-UCSF-BK012,2018-02-02 22:22:14+00:00,2018-02-08 17:29:42+00:00,,,44,B,80,579.9208879470825,NO,1,INCONGRUENT,YES,1,C
ADMIN-UCSF-BK012,2018-02-02 22:22:14+00:00,2018-02-08 17:29:42+00:00,,,45,D,660,691.9020414352417,NO,1,CONGRUENT,YES,1,D
ADMIN-UCSF-BK012,2018-02-02 22:22:14+00:00,2018-02-08 17:29:42+00:00,,,46,C,70,454.3170928955078,YES,1,INCONGRUENT,NO,1,A
ADMIN-UCSF-BK012,2018-02-02 22:22:14+00:00,2018-02-08 17:29:42+00:00,,,47,D,650,652.1530151367188,NO,1,CONGRUENT,YES,1,D
ADMIN-UCSF-BK012,2018-02-02 22:22:14+00:00,2018-02-08 17:29:42+00:00,,,48,A,60,673.4820604324341,YES,0,INCONGRUENT,NO,1,D
ADMIN-UCSF-BK012,2018-02-02 22:22:14+00:00,2018-02-08 17:29:42+00:00,,,49,C,640,929.2320013046265,NO,1,CONGRUENT,YES,1,C
ADMIN-UCSF-BK013,2018-02-02 22:47:37+00:00,2018-02-08 17:29:42+00:00,,,0,D,800,785.7189178466797,NO,0,INCONGRUENT,YES,0,B
ADMIN-UCSF-BK013,2018-02-02 22:47:37+00:00,2018-02-08 17:29:42+00:00,,,1,B,840,613.3149862289429,NO,1,INCONGRUENT,YES,0,C
ADMIN-UCSF-BK013,2018-02-02 22:47:37+00:00,2018-02-08 17:29:42+00:00,,,2,D,830,631.0670375823975,YES,1,INCONGRUENT,NO,0,A
ADMIN-UCSF-BK013,2018-02-02 22:47:37+00:00,2018-02-08 17:29:42+00:00,,,3,D,800,780.0209522247314,NO,1,CONGRUENT,YES,0,D
ADMIN-UCSF-BK013,2018-02-02 22:47:37+00:00,2018-02-08 17:29:42+00:00,,,4,C,820,690.7380819320679,YES,1,INCONGRUENT,NO,0,B
ADMIN-UCSF-BK013,2018-02-02 22:47:37+00:00,2018-02-08 17:29:42+00:00,,,5,C,800,595.695972442627,YES,1,INCONGRUENT,NO,0,A
ADMIN-UCSF-BK013,2018-02-02 22:47:37+00:00,2018-02-08 17:29:42+00:00,,,6,D,760,756.6200494766235,YES,1,INCONGRUENT,NO,0,A
ADMIN-UCSF-BK013,2018-02-02 22:47:37+00:00,2018-02-08 17:29:42+00:00,,,7,A,790,660.3080034255981,YES,1,CONGRUENT,NO,0,A
ADMIN-UCSF-BK013,2018-02-02 22:47:37+00:00,2018-02-08 17:29:42+00:00,,,8,A,680,622.3800182342529,NO,1,INCONGRUENT,YES,0,C
ADMIN-UCSF-BK013,2018-02-02 22:47:37+00:00,2018-02-08 17:29:42+00:00,,,9,B,780,689.2039775848389,YES,1,CONGRUENT,NO,0,B
ADMIN-UCSF-BK013,2018-02-02 22:47:37+00:00,2018-02-08 17:29:42+00:00,,,10,D,520,805.5809736251831,YES,1,INCONGRUENT,NO,1,B
ADMIN-UCSF-BK013,2018-02-02 22:47:37+00:00,2018-02-08 17:29:42+00:00,,,11,D,510,716.0069942474365,YES,1,INCONGRUENT,NO,1,A
ADMIN-UCSF-BK013,2018-02-02 22:47:37+00:00,2018-02-08 17:29:42+00:00,,,12,A,760,621.332049369812,YES,1,CONGRUENT,NO,0,A
ADMIN-UCSF-BK013,2018-02-02 22:47:37+00:00,2018-02-08 17:29:42+00:00,,,13,B,720,722.9580879211426,NO,0,CONGRUENT,YES,1,B
ADMIN-UCSF-BK013,2018-02-02 22:47:37+00:00,2018-02-08 17:29:42+00:00,,,14,D,500,734.3450784683228,YES,1,INCONGRUENT,NO,1,B
ADMIN-UCSF-BK013,2018-02-02 22:47:37+00:00,2018-02-08 17:29:42+00:00,,,15,D,760,828.0479907989502,NO,1,CONGRUENT,YES,1,D
ADMIN-UCSF-BK013,2018-02-02 22:47:37+00:00,2018-02-08 17:29:42+00:00,,,16,C,750,821.7040300369263,YES,0,CONGRUENT,NO,1,C
ADMIN-UCSF-BK013,2018-02-02 22:47:37+00:00,2018-02-08 17:29:42+00:00,,,17,A,490,N/A,NO,0,INCONGRUENT,NO,1,D
ADMIN-UCSF-BK013,2018-02-02 22:47:37+00:00,2018-02-08 17:29:42+00:00,,,18,D,830,812.1360540390015,YES,0,CONGRUENT,NO,0,D
ADMIN-UCSF-BK013,2018-02-02 22:47:37+00:00,2018-02-08 17:29:42+00:00,,,19,A,990,757.4379444122314,NO,0,CONGRUENT,YES,0,A
ADMIN-UCSF-BK013,2018-02-02 22:47:37+00:00,2018-02-08 17:29:42+00:00,,,20,B,650,805.8350086212158,NO,1,INCONGRUENT,YES,1,D
ADMIN-UCSF-BK013,2018-02-02 22:47:37+00:00,2018-02-08 17:29:42+00:00,,,21,B,1310,670.6299781799316,YES,1,CONGRUENT,NO,0,B
ADMIN-UCSF-BK013,2018-02-02 22:47:37+00:00,2018-02-08 17:29:42+00:00,,,22,B,640,675.7389307022095,NO,1,INCONGRUENT,YES,1,D
ADMIN-UCSF-BK013,2018-02-02 22:47:37+00:00,2018-02-08 17:29:42+00:00,,,23,B,1300,707.8899145126343,YES,1,CONGRUENT,NO,0,B
ADMIN-UCSF-BK013,2018-02-02 22:47:37+00:00,2018-02-08 17:29:42+00:00,,,24,D,1290,678.0110597610474,NO,1,CONGRUENT,YES,0,D
ADMIN-UCSF-BK013,2018-02-02 22:47:37+00:00,2018-02-08 17:29:42+00:00,,,25,A,630,718.1110382080078,NO,1,INCONGRUENT,YES,1,D
ADMIN-UCSF-BK013,2018-02-02 22:47:37+00:00,2018-02-08 17:29:42+00:00,,,26,D,1270,567.223072052002,NO,1,CONGRUENT,YES,0,D
ADMIN-UCSF-BK013,2018-02-02 22:47:37+00:00,2018-02-08 17:29:42+00:00,,,27,B,620,642.5260305404663,YES,0,INCONGRUENT,NO,1,C
ADMIN-UCSF-BK013,2018-02-02 22:47:37+00:00,2018-02-08 17:29:42+00:00,,,28,C,1230,565.4909610748291,NO,1,CONGRUENT,YES,0,C
ADMIN-UCSF-BK013,2018-02-02 22:47:37+00:00,2018-02-08 17:29:42+00:00,,,29,A,1150,701.6239166259766,YES,1,CONGRUENT,NO,0,A
ADMIN-UCSF-BK013,2018-02-02 22:47:37+00:00,2018-02-08 17:29:42+00:00,,,30,A,3180,832.4130773544312,NO,1,INCONGRUENT,YES,0,D
ADMIN-UCSF-BK013,2018-02-02 22:47:37+00:00,2018-02-08 17:29:42+00:00,,,31,B,3170,709.3570232391357,NO,1,INCONGRUENT,YES,0,C
ADMIN-UCSF-BK013,2018-02-02 22:47:37+00:00,2018-02-08 17:29:42+00:00,,,32,C,3160,757.9410076141357,YES,1,INCONGRUENT,NO,0,A
ADMIN-UCSF-BK013,2018-02-02 22:47:37+00:00,2018-02-08 17:29:42+00:00,,,33,A,990,489.888072013855,YES,1,CONGRUENT,NO,0,A
ADMIN-UCSF-BK013,2018-02-02 22:47:37+00:00,2018-02-08 17:29:42+00:00,,,34,C,670,508.4400177001953,NO,1,CONGRUENT,YES,0,C
ADMIN-UCSF-BK013,2018-02-02 22:47:37+00:00,2018-02-08 17:29:42+00:00,,,35,A,3140,506.619930267334,NO,1,INCONGRUENT,YES,0,C
ADMIN-UCSF-BK013,2018-02-02 22:47:37+00:00,2018-02-08 17:29:42+00:00,,,36,D,30,620.5340623855591,YES,0,CONGRUENT,NO,1,D
ADMIN-UCSF-BK013,2018-02-02 22:47:37+00:00,2018-02-08 17:29:42+00:00,,,37,D,70,641.8130397796631,NO,1,CONGRUENT,YES,1,D
ADMIN-UCSF-BK013,2018-02-02 22:47:37+00:00,2018-02-08 17:29:42+00:00,,,38,B,3100,639.3970251083374,NO,1,INCONGRUENT,YES,0,D
ADMIN-UCSF-BK013,2018-02-02 22:47:37+00:00,2018-02-08 17:29:42+00:00,,,39,A,60,589.1680717468262,YES,1,CONGRUENT,NO,1,A
ADMIN-UCSF-BK013,2018-02-02 22:47:37+00:00,2018-02-08 17:29:42+00:00,,,40,B,3020,572.59202003479,NO,1,INCONGRUENT,YES,0,C
ADMIN-UCSF-BK013,2018-02-02 22:47:37+00:00,2018-02-08 17:29:42+00:00,,,41,D,2860,897.5789546966553,YES,1,INCONGRUENT,NO,0,B
ADMIN-UCSF-BK013,2018-02-02 22:47:37+00:00,2018-02-08 17:29:42+00:00,,,42,B,50,931.3520193099976,YES,1,CONGRUENT,NO,1,B
ADMIN-UCSF-BK013,2018-02-02 22:47:37+00:00,2018-02-08 17:29:42+00:00,,,43,B,40,627.0649433135986,YES,1,CONGRUENT,NO,1,B
ADMIN-UCSF-BK013,2018-02-02 22:47:37+00:00,2018-02-08 17:29:42+00:00,,,44,B,30,480.82494735717773,YES,1,CONGRUENT,NO,1,B
ADMIN-UCSF-BK013,2018-02-02 22:47:37+00:00,2018-02-08 17:29:42+00:00,,,45,A,2540,678.7749528884888,NO,1,INCONGRUENT,YES,0,D
ADMIN-UCSF-BK013,2018-02-02 22:47:37+00:00,2018-02-08 17:29:42+00:00,,,46,C,20,989.395022392273,NO,1,CONGRUENT,YES,1,C
ADMIN-UCSF-BK013,2018-02-02 22:47:37+00:00,2018-02-08 17:29:42+00:00,,,47,B,10,674.7969388961792,YES,1,CONGRUENT,NO,1,B
ADMIN-UCSF-BK013,2018-02-02 22:47:37+00:00,2018-02-08 17:29:42+00:00,,,48,B,1900,790.0160551071167,NO,1,INCONGRUENT,YES,0,C
ADMIN-UCSF-BK013,2018-02-02 22:47:37+00:00,2018-02-08 17:29:42+00:00,,,49,D,620,858.5540056228638,YES,1,INCONGRUENT,NO,1,A
