participant_id,time_gameplayed_utc,time_sent_utc,detail,condition,trial_number,response_time,response_window,trial_accuracy,position_is_top,correct_button,late_response
ADMIN-UCSF-BK002,2017-10-16 20:38:58+00:00,2017-10-19 21:30:24+00:00,,Impulsive,0,409.98804569244385,600,Hit,1,1,0
ADMIN-UCSF-BK002,2017-10-16 20:38:58+00:00,2017-10-19 21:30:24+00:00,,Sustained,0,0,600,Correct Rejection,0,1,N/A
ADMIN-UCSF-BK002,2017-10-16 20:38:58+00:00,2017-10-19 21:30:24+00:00,,Impulsive,1,534.168004989624,590,False Alarm,0,0,N/A
ADMIN-UCSF-BK002,2017-10-16 20:38:58+00:00,2017-10-19 21:30:24+00:00,,Sustained,1,315.654993057251,600,Hit,1,1,0
ADMIN-UCSF-BK002,2017-10-16 20:38:58+00:00,2017-10-19 21:30:24+00:00,,Impulsive,2,0,630,Correct Rejection,0,1,N/A
ADMIN-UCSF-BK002,2017-10-16 20:38:58+00:00,2017-10-19 21:30:24+00:00,,Sustained,2,415.91399908065796,590,Hit,1,1,0
ADMIN-UCSF-BK002,2017-10-16 20:38:58+00:00,2017-10-19 21:30:24+00:00,,Impulsive,3,0,630,Correct Rejection,0,1,N/A
ADMIN-UCSF-BK002,2017-10-16 20:38:58+00:00,2017-10-19 21:30:24+00:00,,Sustained,3,392.31598377227783,580,Hit,1,1,0
ADMIN-UCSF-BK002,2017-10-16 20:38:58+00:00,2017-10-19 21:30:24+00:00,,Impulsive,4,436.460018157959,630,Hit,1,1,0
ADMIN-UCSF-BK002,2017-10-16 20:38:58+00:00,2017-10-19 21:30:24+00:00,,Sustained,4,459.76901054382324,560,Hit,1,1,0
ADMIN-UCSF-BK002,2017-10-16 20:38:58+00:00,2017-10-19 21:30:24+00:00,,Impulsive,5,0,620,Correct Rejection,0,1,N/A
ADMIN-UCSF-BK002,2017-10-16 20:38:58+00:00,2017-10-19 21:30:24+00:00,,Sustained,5,394.0020203590393,520,Hit,1,1,0
ADMIN-UCSF-BK002,2017-10-16 20:38:58+00:00,2017-10-19 21:30:24+00:00,,Impulsive,6,0,620,Correct Rejection,0,1,N/A
ADMIN-UCSF-BK002,2017-10-16 20:38:58+00:00,2017-10-19 21:30:24+00:00,,Sustained,6,0,440,Correct Rejection,0,1,N/A
ADMIN-UCSF-BK002,2017-10-16 20:38:58+00:00,2017-10-19 21:30:24+00:00,,Impulsive,7,435.3749752044678,620,Hit,1,1,0
ADMIN-UCSF-BK002,2017-10-16 20:38:58+00:00,2017-10-19 21:30:24+00:00,,Sustained,7,0,440,Correct Rejection,0,1,N/A
ADMIN-UCSF-BK002,2017-10-16 20:38:58+00:00,2017-10-19 21:30:24+00:00,,Impulsive,8,469.8770046234131,610,False Alarm,0,0,N/A
ADMIN-UCSF-BK002,2017-10-16 20:38:58+00:00,2017-10-19 21:30:24+00:00,,Sustained,8,494.5340156555176,440,Miss,1,0,0
ADMIN-UCSF-BK002,2017-10-16 20:38:58+00:00,2017-10-19 21:30:24+00:00,,Impulsive,9,0,650,Correct Rejection,0,1,N/A
ADMIN-UCSF-BK002,2017-10-16 20:38:58+00:00,2017-10-19 21:30:24+00:00,,Sustained,9,484.345018863678,480,Miss,1,0,0
ADMIN-UCSF-BK002,2017-10-16 20:38:58+00:00,2017-10-19 21:30:24+00:00,,Impulsive,10,529.5859575271606,650,Hit,1,1,0
ADMIN-UCSF-BK002,2017-10-16 20:38:58+00:00,2017-10-19 21:30:24+00:00,,Sustained,10,316.7570233345032,520,Hit,1,1,0
ADMIN-UCSF-BK002,2017-10-16 20:38:58+00:00,2017-10-19 21:30:24+00:00,,Impulsive,11,0,640,Correct Rejection,0,1,N/A
ADMIN-UCSF-BK002,2017-10-16 20:38:58+00:00,2017-10-19 21:30:24+00:00,,Sustained,11,324.28598403930664,510,Hit,1,1,0
ADMIN-UCSF-BK002,2017-10-16 20:38:58+00:00,2017-10-19 21:30:24+00:00,,Impulsive,12,0,640,Correct Rejection,0,1,N/A
ADMIN-UCSF-BK002,2017-10-16 20:38:58+00:00,2017-10-19 21:30:24+00:00,,Sustained,12,368.37995052337646,500,False Alarm,0,0,N/A
ADMIN-UCSF-BK002,2017-10-16 20:38:58+00:00,2017-10-19 21:30:24+00:00,,Impulsive,13,414.1700267791748,640,Hit,1,1,0
ADMIN-UCSF-BK002,2017-10-16 20:38:58+00:00,2017-10-19 21:30:24+00:00,,Sustained,13,0,540,Correct Rejection,0,1,N/A
ADMIN-UCSF-BK002,2017-10-16 20:38:58+00:00,2017-10-19 21:30:24+00:00,,Impulsive,14,392.80402660369873,630,Hit,1,1,0
ADMIN-UCSF-BK002,2017-10-16 20:38:58+00:00,2017-10-19 21:30:24+00:00,,Sustained,14,584.4069719314575,540,Miss,1,0,0
ADMIN-UCSF-BK002,2017-10-16 20:38:58+00:00,2017-10-19 21:30:24+00:00,,Impulsive,15,391.0360336303711,610,False Alarm,0,0,N/A
ADMIN-UCSF-BK002,2017-10-16 20:38:58+00:00,2017-10-19 21:30:24+00:00,,Sustained,15,447.24202156066895,580,False Alarm,0,0,N/A
ADMIN-UCSF-BK002,2017-10-16 20:38:58+00:00,2017-10-19 21:30:24+00:00,,Impulsive,16,0,650,Correct Rejection,0,1,N/A
ADMIN-UCSF-BK002,2017-10-16 20:38:58+00:00,2017-10-19 21:30:24+00:00,,Sustained,16,0,620,Correct Rejection,0,1,N/A
ADMIN-UCSF-BK002,2017-10-16 20:38:58+00:00,2017-10-19 21:30:24+00:00,,Impulsive,17,0,650,Correct Rejection,0,1,N/A
ADMIN-UCSF-BK002,2017-10-16 20:38:58+00:00,2017-10-19 21:30:24+00:00,,Sustained,17,0,620,Correct Rejection,0,1,N/A
ADMIN-UCSF-BK002,2017-10-16 20:38:58+00:00,2017-10-19 21:30:24+00:00,,Impulsive,18,0,650,Correct Rejection,0,1,N/A
ADMIN-UCSF-BK002,2017-10-16 20:38:58+00:00,2017-10-19 21:30:24+00:00,,Sustained,18,0,620,Correct Rejection,0,1,N/A
ADMIN-UCSF-BK002,2017-10-16 20:38:58+00:00,2017-10-19 21:30:24+00:00,,Impulsive,19,0,650,Correct Rejection,0,1,N/A
ADMIN-UCSF-BK002,2017-10-16 20:38:58+00:00,2017-10-19 21:30:24+00:00,,Sustained,19,298.5680103302002,620,Hit,1,1,0
ADMIN-UCSF-BK002,2017-10-16 20:38:58+00:00,2017-10-19 21:30:24+00:00,,Impulsive,20,0,650,Correct Rejection,0,1,N/A
ADMIN-UCSF-BK002,2017-10-16 20:38:58+00:00,2017-10-19 21:30:24+00:00,,Sustained,20,308.9430332183838,610,Hit,1,1,0
ADMIN-UCSF-BK002,2017-10-16 20:38:58+00:00,2017-10-19 21:30:24+00:00,,Impulsive,21,0,650,Correct Rejection,0,1,N/A
ADMIN-UCSF-BK002,2017-10-16 20:38:58+00:00,2017-10-19 21:30:24+00:00,,Sustained,21,386.2529993057251,600,Hit,1,1,0
ADMIN-UCSF-BK002,2017-10-16 20:38:58+00:00,2017-10-19 21:30:24+00:00,,Impulsive,22,0,650,Correct Rejection,0,1,N/A
ADMIN-UCSF-BK002,2017-10-16 20:38:58+00:00,2017-10-19 21:30:24+00:00,,Sustained,22,0,580,Correct Rejection,0,1,N/A
ADMIN-UCSF-BK002,2017-10-16 20:38:58+00:00,2017-10-19 21:30:24+00:00,,Impulsive,23,0,650,Correct Rejection,0,1,N/A
ADMIN-UCSF-BK002,2017-10-16 20:38:58+00:00,2017-10-19 21:30:24+00:00,,Sustained,23,N/A,580,Miss,1,0,1
ADMIN-UCSF-BK002,2017-10-16 20:38:58+00:00,2017-10-19 21:30:24+00:00,,Impulsive,24,0,650,Correct Rejection,0,1,N/A
ADMIN-UCSF-BK002,2017-10-16 20:38:58+00:00,2017-10-19 21:30:24+00:00,,Sustained,24,427.2890090942383,620,Hit,1,1,0
ADMIN-UCSF-BK002,2017-10-16 20:38:58+00:00,2017-10-19 21:30:24+00:00,,Impulsive,25,353.5969853401184,650,Hit,1,1,0
ADMIN-UCSF-BK002,2017-10-16 20:38:58+00:00,2017-10-19 21:30:24+00:00,,Sustained,25,0,610,Correct Rejection,0,1,N/A
ADMIN-UCSF-BK002,2017-10-16 20:38:58+00:00,2017-10-19 21:30:24+00:00,,Impulsive,26,0,640,Correct Rejection,0,1,N/A
ADMIN-UCSF-BK002,2017-10-16 20:38:58+00:00,2017-10-19 21:30:24+00:00,,Sustained,26,340.95895290374756,610,Hit,1,1,0
ADMIN-UCSF-BK002,2017-10-16 20:38:58+00:00,2017-10-19 21:30:24+00:00,,Impulsive,27,0,640,Correct Rejection,0,1,N/A
ADMIN-UCSF-BK002,2017-10-16 20:38:58+00:00,2017-10-19 21:30:24+00:00,,Sustained,27,409.2400074005127,600,Hit,1,1,0
ADMIN-UCSF-BK002,2017-10-16 20:38:58+00:00,2017-10-19 21:30:24+00:00,,Impulsive,28,422.89096117019653,640,Hit,1,1,0
ADMIN-UCSF-BK002,2017-10-16 20:38:58+00:00,2017-10-19 21:30:24+00:00,,Sustained,28,354.6310067176819,580,Hit,1,1,0
ADMIN-UCSF-BK002,2017-10-16 20:38:58+00:00,2017-10-19 21:30:24+00:00,,Impulsive,29,0,630,Correct Rejection,0,1,N/A
ADMIN-UCSF-BK002,2017-10-16 20:38:58+00:00,2017-10-19 21:30:24+00:00,,Sustained,29,409.0839624404907,540,Hit,1,1,0
ADMIN-UCSF-BK002,2017-10-16 20:38:58+00:00,2017-10-19 21:30:24+00:00,,Impulsive,30,0,630,Correct Rejection,0,1,N/A
ADMIN-UCSF-BK002,2017-10-16 20:38:58+00:00,2017-10-19 21:30:24+00:00,,Sustained,30,468.86003017425537,460,Miss,1,0,0
ADMIN-UCSF-BK002,2017-10-16 20:38:58+00:00,2017-10-19 21:30:24+00:00,,Impulsive,31,291.25797748565674,630,Hit,1,1,0
ADMIN-UCSF-BK002,2017-10-16 20:38:58+00:00,2017-10-19 21:30:24+00:00,,Sustained,31,0,500,Correct Rejection,0,1,N/A
ADMIN-UCSF-BK002,2017-10-16 20:38:58+00:00,2017-10-19 21:30:24+00:00,,Impulsive,32,0,610,Correct Rejection,0,1,N/A
ADMIN-UCSF-BK002,2017-10-16 20:38:58+00:00,2017-10-19 21:30:24+00:00,,Sustained,32,429.58903312683105,500,Hit,1,1,0
ADMIN-UCSF-BK002,2017-10-16 20:38:58+00:00,2017-10-19 21:30:24+00:00,,Impulsive,33,N/A,610,Miss,1,0,1
ADMIN-UCSF-BK002,2017-10-16 20:38:58+00:00,2017-10-19 21:30:24+00:00,,Sustained,33,367.4129843711853,490,Hit,1,1,0
ADMIN-UCSF-BK002,2017-10-16 20:38:58+00:00,2017-10-19 21:30:24+00:00,,Impulsive,34,411.18502616882324,650,Hit,1,1,0
ADMIN-UCSF-BK002,2017-10-16 20:38:58+00:00,2017-10-19 21:30:24+00:00,,Sustained,34,286.51297092437744,480,Hit,1,1,0
ADMIN-UCSF-BK002,2017-10-16 20:38:58+00:00,2017-10-19 21:30:24+00:00,,Impulsive,35,0,640,Correct Rejection,0,1,N/A
ADMIN-UCSF-BK002,2017-10-16 20:38:58+00:00,2017-10-19 21:30:24+00:00,,Sustained,35,361.6729974746704,460,Hit,1,1,0
ADMIN-UCSF-BK002,2017-10-16 20:38:58+00:00,2017-10-19 21:30:24+00:00,,Impulsive,36,516.3559913635254,640,Hit,1,1,0
ADMIN-UCSF-BK002,2017-10-16 20:38:58+00:00,2017-10-19 21:30:24+00:00,,Sustained,36,320.96195220947266,420,Hit,1,1,0
ADMIN-UCSF-BK002,2017-10-16 20:38:58+00:00,2017-10-19 21:30:24+00:00,,Impulsive,37,0,630,Correct Rejection,0,1,N/A
ADMIN-UCSF-BK002,2017-10-16 20:38:58+00:00,2017-10-19 21:30:24+00:00,,Sustained,37,402.45795249938965,340,Miss,1,0,0
ADMIN-UCSF-BK002,2017-10-16 20:38:58+00:00,2017-10-19 21:30:24+00:00,,Impulsive,38,0,630,Correct Rejection,0,1,N/A
ADMIN-UCSF-BK002,2017-10-16 20:38:58+00:00,2017-10-19 21:30:24+00:00,,Sustained,38,376.58196687698364,380,Hit,1,1,0
ADMIN-UCSF-BK002,2017-10-16 20:38:58+00:00,2017-10-19 21:30:24+00:00,,Impulsive,39,0,630,Correct Rejection,0,1,N/A
ADMIN-UCSF-BK002,2017-10-16 20:38:58+00:00,2017-10-19 21:30:24+00:00,,Sustained,39,287.58102655410767,370,Hit,1,1,0
ADMIN-UCSF-BK004,2017-10-16 21:00:20+00:00,2017-10-19 21:30:24+00:00,,Impulsive,0,0,600,Correct Rejection,0,1,N/A
ADMIN-UCSF-BK004,2017-10-16 21:00:20+00:00,2017-10-19 21:30:24+00:00,,Sustained,0,297.3470091819763,600,Hit,1,1,0
ADMIN-UCSF-BK004,2017-10-16 21:00:20+00:00,2017-10-19 21:30:24+00:00,,Impulsive,1,237.74999380111694,600,Hit,1,1,0
ADMIN-UCSF-BK004,2017-10-16 21:00:20+00:00,2017-10-19 21:30:24+00:00,,Sustained,1,401.6159772872925,590,Hit,1,1,0
ADMIN-UCSF-BK004,2017-10-16 21:00:20+00:00,2017-10-19 21:30:24+00:00,,Impulsive,2,0,590,Correct Rejection,0,1,N/A
ADMIN-UCSF-BK004,2017-10-16 21:00:20+00:00,2017-10-19 21:30:24+00:00,,Sustained,2,395.8170413970947,580,Hit,1,1,0
ADMIN-UCSF-BK004,2017-10-16 21:00:20+00:00,2017-10-19 21:30:24+00:00,,Impulsive,3,0,590,Correct Rejection,0,1,N/A
ADMIN-UCSF-BK004,2017-10-16 21:00:20+00:00,2017-10-19 21:30:24+00:00,,Sustained,3,415.818989276886,560,Hit,1,1,0
ADMIN-UCSF-BK004,2017-10-16 21:00:20+00:00,2017-10-19 21:30:24+00:00,,Impulsive,4,0,590,Correct Rejection,0,1,N/A
ADMIN-UCSF-BK004,2017-10-16 21:00:20+00:00,2017-10-19 21:30:24+00:00,,Sustained,4,458.9269757270813,520,Hit,1,1,0
ADMIN-UCSF-BK004,2017-10-16 21:00:20+00:00,2017-10-19 21:30:24+00:00,,Impulsive,5,0,590,Correct Rejection,0,1,N/A
ADMIN-UCSF-BK004,2017-10-16 21:00:20+00:00,2017-10-19 21:30:24+00:00,,Sustained,5,0,440,Correct Rejection,0,1,N/A
ADMIN-UCSF-BK004,2017-10-16 21:00:20+00:00,2017-10-19 21:30:24+00:00,,Impulsive,6,294.55000162124634,590,Hit,1,1,0
ADMIN-UCSF-BK004,2017-10-16 21:00:20+00:00,2017-10-19 21:30:24+00:00,,Sustained,6,338.39499950408936,440,Hit,1,1,0
ADMIN-UCSF-BK004,2017-10-16 21:00:20+00:00,2017-10-19 21:30:24+00:00,,Impulsive,7,0,580,Correct Rejection,0,1,N/A
ADMIN-UCSF-BK004,2017-10-16 21:00:20+00:00,2017-10-19 21:30:24+00:00,,Sustained,7,0,280,Correct Rejection,0,1,N/A
ADMIN-UCSF-BK004,2017-10-16 21:00:20+00:00,2017-10-19 21:30:24+00:00,,Impulsive,8,299.7649908065796,580,Hit,1,1,0
ADMIN-UCSF-BK004,2017-10-16 21:00:20+00:00,2017-10-19 21:30:24+00:00,,Sustained,8,289.2909646034241,280,Miss,1,0,0
ADMIN-UCSF-BK004,2017-10-16 21:00:20+00:00,2017-10-19 21:30:24+00:00,,Impulsive,9,0,560,Correct Rejection,0,1,N/A
ADMIN-UCSF-BK004,2017-10-16 21:00:20+00:00,2017-10-19 21:30:24+00:00,,Sustained,9,481.84895515441895,320,Miss,1,0,0
ADMIN-UCSF-BK004,2017-10-16 21:00:20+00:00,2017-10-19 21:30:24+00:00,,Impulsive,10,297.73300886154175,560,Hit,1,1,0
ADMIN-UCSF-BK004,2017-10-16 21:00:20+00:00,2017-10-19 21:30:24+00:00,,Sustained,10,269.2989706993103,360,Hit,1,1,0
ADMIN-UCSF-BK004,2017-10-16 21:00:20+00:00,2017-10-19 21:30:24+00:00,,Impulsive,11,N/A,520,Miss,1,0,1
ADMIN-UCSF-BK004,2017-10-16 21:00:20+00:00,2017-10-19 21:30:24+00:00,,Sustained,11,372.4890351295471,350,Miss,1,0,0
ADMIN-UCSF-BK004,2017-10-16 21:00:20+00:00,2017-10-19 21:30:24+00:00,,Impulsive,12,0,560,Correct Rejection,0,1,N/A
ADMIN-UCSF-BK004,2017-10-16 21:00:20+00:00,2017-10-19 21:30:24+00:00,,Sustained,12,238.14696073532104,390,Hit,1,1,0
ADMIN-UCSF-BK004,2017-10-16 21:00:20+00:00,2017-10-19 21:30:24+00:00,,Impulsive,13,0,560,Correct Rejection,0,1,N/A
ADMIN-UCSF-BK004,2017-10-16 21:00:20+00:00,2017-10-19 21:30:24+00:00,,Sustained,13,421.5850234031677,380,Miss,1,0,0
ADMIN-UCSF-BK004,2017-10-16 21:00:20+00:00,2017-10-19 21:30:24+00:00,,Impulsive,14,361.6480231285095,560,Hit,1,1,0
ADMIN-UCSF-BK004,2017-10-16 21:00:20+00:00,2017-10-19 21:30:24+00:00,,Sustained,14,265.18601179122925,420,Hit,1,1,0
ADMIN-UCSF-BK004,2017-10-16 21:00:20+00:00,2017-10-19 21:30:24+00:00,,Impulsive,15,0,550,Correct Rejection,0,1,N/A
ADMIN-UCSF-BK004,2017-10-16 21:00:20+00:00,2017-10-19 21:30:24+00:00,,Sustained,15,0,410,Correct Rejection,0,1,N/A
ADMIN-UCSF-BK004,2017-10-16 21:00:20+00:00,2017-10-19 21:30:24+00:00,,Impulsive,16,0,550,Correct Rejection,0,1,N/A
ADMIN-UCSF-BK004,2017-10-16 21:00:20+00:00,2017-10-19 21:30:24+00:00,,Sustained,16,0,410,Correct Rejection,0,1,N/A
ADMIN-UCSF-BK004,2017-10-16 21:00:20+00:00,2017-10-19 21:30:24+00:00,,Impulsive,17,0,550,Correct Rejection,0,1,N/A
ADMIN-UCSF-BK004,2017-10-16 21:00:20+00:00,2017-10-19 21:30:24+00:00,,Sustained,17,0,410,Correct Rejection,0,1,N/A
ADMIN-UCSF-BK004,2017-10-16 21:00:20+00:00,2017-10-19 21:30:24+00:00,,Impulsive,18,302.0300269126892,550,Hit,1,1,0
ADMIN-UCSF-BK004,2017-10-16 21:00:20+00:00,2017-10-19 21:30:24+00:00,,Sustained,18,308.7120056152344,410,Hit,1,1,0
ADMIN-UCSF-BK004,2017-10-16 21:00:20+00:00,2017-10-19 21:30:24+00:00,,Impulsive,19,0,540,Correct Rejection,0,1,N/A
ADMIN-UCSF-BK004,2017-10-16 21:00:20+00:00,2017-10-19 21:30:24+00:00,,Sustained,19,389.74398374557495,400,Hit,1,1,0
ADMIN-UCSF-BK004,2017-10-16 21:00:20+00:00,2017-10-19 21:30:24+00:00,,Impulsive,20,0,540,Correct Rejection,0,1,N/A
ADMIN-UCSF-BK004,2017-10-16 21:00:20+00:00,2017-10-19 21:30:24+00:00,,Sustained,20,281.8949818611145,380,Hit,1,1,0
ADMIN-UCSF-BK004,2017-10-16 21:00:20+00:00,2017-10-19 21:30:24+00:00,,Impulsive,21,292.5909757614136,540,Hit,1,1,0
ADMIN-UCSF-BK004,2017-10-16 21:00:20+00:00,2017-10-19 21:30:24+00:00,,Sustained,21,0,340,Correct Rejection,0,1,N/A
ADMIN-UCSF-BK004,2017-10-16 21:00:20+00:00,2017-10-19 21:30:24+00:00,,Impulsive,22,519.3089842796326,520,Hit,1,1,0
ADMIN-UCSF-BK004,2017-10-16 21:00:20+00:00,2017-10-19 21:30:24+00:00,,Sustained,22,536.6629958152771,340,Miss,1,0,0
ADMIN-UCSF-BK004,2017-10-16 21:00:20+00:00,2017-10-19 21:30:24+00:00,,Impulsive,23,0,480,Correct Rejection,0,1,N/A
ADMIN-UCSF-BK004,2017-10-16 21:00:20+00:00,2017-10-19 21:30:24+00:00,,Sustained,23,449.4040012359619,380,Miss,1,0,0
ADMIN-UCSF-BK004,2017-10-16 21:00:20+00:00,2017-10-19 21:30:24+00:00,,Impulsive,24,358.2870364189148,480,Hit,1,1,0
ADMIN-UCSF-BK004,2017-10-16 21:00:20+00:00,2017-10-19 21:30:24+00:00,,Sustained,24,347.33498096466064,420,Hit,1,1,0
ADMIN-UCSF-BK004,2017-10-16 21:00:20+00:00,2017-10-19 21:30:24+00:00,,Impulsive,25,0,400,Correct Rejection,0,1,N/A
ADMIN-UCSF-BK004,2017-10-16 21:00:20+00:00,2017-10-19 21:30:24+00:00,,Sustained,25,0,410,Correct Rejection,0,1,N/A
ADMIN-UCSF-BK004,2017-10-16 21:00:20+00:00,2017-10-19 21:30:24+00:00,,Impulsive,26,0,400,Correct Rejection,0,1,N/A
ADMIN-UCSF-BK004,2017-10-16 21:00:20+00:00,2017-10-19 21:30:24+00:00,,Sustained,26,0,410,Correct Rejection,0,1,N/A
ADMIN-UCSF-BK004,2017-10-16 21:00:20+00:00,2017-10-19 21:30:24+00:00,,Impulsive,27,0,400,Correct Rejection,0,1,N/A
ADMIN-UCSF-BK004,2017-10-16 21:00:20+00:00,2017-10-19 21:30:24+00:00,,Sustained,27,315.9400224685669,410,Hit,1,1,0
ADMIN-UCSF-BK004,2017-10-16 21:00:20+00:00,2017-10-19 21:30:24+00:00,,Impulsive,28,0,400,Correct Rejection,0,1,N/A
ADMIN-UCSF-BK004,2017-10-16 21:00:20+00:00,2017-10-19 21:30:24+00:00,,Sustained,28,297.0280051231384,400,Hit,1,1,0
ADMIN-UCSF-BK004,2017-10-16 21:00:20+00:00,2017-10-19 21:30:24+00:00,,Impulsive,29,0,400,Correct Rejection,0,1,N/A
ADMIN-UCSF-BK004,2017-10-16 21:00:20+00:00,2017-10-19 21:30:24+00:00,,Sustained,29,0,380,Correct Rejection,0,1,N/A
ADMIN-UCSF-BK004,2017-10-16 21:00:20+00:00,2017-10-19 21:30:24+00:00,,Impulsive,30,0,400,Correct Rejection,0,1,N/A
ADMIN-UCSF-BK004,2017-10-16 21:00:20+00:00,2017-10-19 21:30:24+00:00,,Sustained,30,0,380,Correct Rejection,0,1,N/A
ADMIN-UCSF-BK004,2017-10-16 21:00:20+00:00,2017-10-19 21:30:24+00:00,,Impulsive,31,0,400,Correct Rejection,0,1,N/A
ADMIN-UCSF-BK004,2017-10-16 21:00:20+00:00,2017-10-19 21:30:24+00:00,,Sustained,31,379.29195165634155,380,Hit,1,1,0
ADMIN-UCSF-BK004,2017-10-16 21:00:20+00:00,2017-10-19 21:30:24+00:00,,Impulsive,32,285.7849597930908,400,False Alarm,0,0,N/A
ADMIN-UCSF-BK004,2017-10-16 21:00:20+00:00,2017-10-19 21:30:24+00:00,,Sustained,32,361.84996366500854,340,Miss,1,0,0
ADMIN-UCSF-BK004,2017-10-16 21:00:20+00:00,2017-10-19 21:30:24+00:00,,Impulsive,33,0,440,Correct Rejection,0,1,N/A
ADMIN-UCSF-BK004,2017-10-16 21:00:20+00:00,2017-10-19 21:30:24+00:00,,Sustained,33,344.0219759941101,380,False Alarm,0,0,N/A
ADMIN-UCSF-BK004,2017-10-16 21:00:20+00:00,2017-10-19 21:30:24+00:00,,Impulsive,34,0,440,Correct Rejection,0,1,N/A
ADMIN-UCSF-BK004,2017-10-16 21:00:20+00:00,2017-10-19 21:30:24+00:00,,Sustained,34,427.3480176925659,420,Miss,1,0,0
ADMIN-UCSF-BK004,2017-10-16 21:00:20+00:00,2017-10-19 21:30:24+00:00,,Impulsive,35,0,440,Correct Rejection,0,1,N/A
ADMIN-UCSF-BK004,2017-10-16 21:00:20+00:00,2017-10-19 21:30:24+00:00,,Sustained,35,531.7350029945374,500,Miss,1,0,0
ADMIN-UCSF-BK004,2017-10-16 21:00:20+00:00,2017-10-19 21:30:24+00:00,,Impulsive,36,N/A,440,Miss,1,0,1
ADMIN-UCSF-BK004,2017-10-16 21:00:20+00:00,2017-10-19 21:30:24+00:00,,Sustained,36,446.4000463485718,660,Hit,1,1,0
ADMIN-UCSF-BK004,2017-10-16 21:00:20+00:00,2017-10-19 21:30:24+00:00,,Impulsive,37,0,480,Correct Rejection,0,1,N/A
ADMIN-UCSF-BK004,2017-10-16 21:00:20+00:00,2017-10-19 21:30:24+00:00,,Sustained,37,0,650,Correct Rejection,0,1,N/A
ADMIN-UCSF-BK004,2017-10-16 21:00:20+00:00,2017-10-19 21:30:24+00:00,,Impulsive,38,0,480,Correct Rejection,0,1,N/A
ADMIN-UCSF-BK004,2017-10-16 21:00:20+00:00,2017-10-19 21:30:24+00:00,,Sustained,38,283.66899490356445,650,Hit,1,1,0
ADMIN-UCSF-BK004,2017-10-16 21:00:20+00:00,2017-10-19 21:30:24+00:00,,Impulsive,39,574.3809938430786,480,Miss,1,0,0
ADMIN-UCSF-BK004,2017-10-16 21:00:20+00:00,2017-10-19 21:30:24+00:00,,Sustained,39,N/A,640,Miss,1,0,1
ADMIN-UCSF-BK001,2017-10-16 20:19:31+00:00,2017-10-25 14:31:52+00:00,,Impulsive,0,425.61203241348267,600,Hit,1,1,0
ADMIN-UCSF-BK001,2017-10-16 20:19:31+00:00,2017-10-25 14:31:52+00:00,,Sustained,0,471.69798612594604,600,Hit,1,1,0
ADMIN-UCSF-BK001,2017-10-16 20:19:31+00:00,2017-10-25 14:31:52+00:00,,Impulsive,1,532.4680209159851,590,Hit,1,1,0
ADMIN-UCSF-BK001,2017-10-16 20:19:31+00:00,2017-10-25 14:31:52+00:00,,Sustained,1,426.1150360107422,590,Hit,1,1,0
ADMIN-UCSF-BK001,2017-10-16 20:19:31+00:00,2017-10-25 14:31:52+00:00,,Impulsive,2,0,580,Correct Rejection,0,1,N/A
ADMIN-UCSF-BK001,2017-10-16 20:19:31+00:00,2017-10-25 14:31:52+00:00,,Sustained,2,358.96801948547363,580,Hit,1,1,0
ADMIN-UCSF-BK001,2017-10-16 20:19:31+00:00,2017-10-25 14:31:52+00:00,,Impulsive,3,0,580,Correct Rejection,0,1,N/A
ADMIN-UCSF-BK001,2017-10-16 20:19:31+00:00,2017-10-25 14:31:52+00:00,,Sustained,3,510.4079842567444,560,Hit,1,1,0
ADMIN-UCSF-BK001,2017-10-16 20:19:31+00:00,2017-10-25 14:31:52+00:00,,Impulsive,4,0,580,Correct Rejection,0,1,N/A
ADMIN-UCSF-BK001,2017-10-16 20:19:31+00:00,2017-10-25 14:31:52+00:00,,Sustained,4,485.1980209350586,520,Hit,1,1,0
ADMIN-UCSF-BK001,2017-10-16 20:19:31+00:00,2017-10-25 14:31:52+00:00,,Impulsive,5,0,580,Correct Rejection,0,1,N/A
ADMIN-UCSF-BK001,2017-10-16 20:19:31+00:00,2017-10-25 14:31:52+00:00,,Sustained,5,400.5590081214905,440,Hit,1,1,0
ADMIN-UCSF-BK001,2017-10-16 20:19:31+00:00,2017-10-25 14:31:52+00:00,,Impulsive,6,497.2440004348755,580,Hit,1,1,0
ADMIN-UCSF-BK001,2017-10-16 20:19:31+00:00,2017-10-25 14:31:52+00:00,,Sustained,6,518.447995185852,280,Miss,1,0,0
ADMIN-UCSF-BK001,2017-10-16 20:19:31+00:00,2017-10-25 14:31:52+00:00,,Impulsive,7,433.9219927787781,560,Hit,1,1,0
ADMIN-UCSF-BK001,2017-10-16 20:19:31+00:00,2017-10-25 14:31:52+00:00,,Sustained,7,0,320,Correct Rejection,0,1,N/A
ADMIN-UCSF-BK001,2017-10-16 20:19:31+00:00,2017-10-25 14:31:52+00:00,,Impulsive,8,0,520,Correct Rejection,0,1,N/A
ADMIN-UCSF-BK001,2017-10-16 20:19:31+00:00,2017-10-25 14:31:52+00:00,,Sustained,8,0,320,Correct Rejection,0,1,N/A
ADMIN-UCSF-BK001,2017-10-16 20:19:31+00:00,2017-10-25 14:31:52+00:00,,Impulsive,9,0,520,Correct Rejection,0,1,N/A
ADMIN-UCSF-BK001,2017-10-16 20:19:31+00:00,2017-10-25 14:31:52+00:00,,Sustained,9,390.66004753112793,320,Miss,1,0,0
ADMIN-UCSF-BK001,2017-10-16 20:19:31+00:00,2017-10-25 14:31:52+00:00,,Impulsive,10,456.18700981140137,520,Hit,1,1,0
ADMIN-UCSF-BK001,2017-10-16 20:19:31+00:00,2017-10-25 14:31:52+00:00,,Sustained,10,430.84096908569336,360,Miss,1,0,0
ADMIN-UCSF-BK001,2017-10-16 20:19:31+00:00,2017-10-25 14:31:52+00:00,,Impulsive,11,0,440,Correct Rejection,0,1,N/A
ADMIN-UCSF-BK001,2017-10-16 20:19:31+00:00,2017-10-25 14:31:52+00:00,,Sustained,11,373.6199736595154,400,Hit,1,1,0
ADMIN-UCSF-BK001,2017-10-16 20:19:31+00:00,2017-10-25 14:31:52+00:00,,Impulsive,12,394.23900842666626,440,Hit,1,1,0
ADMIN-UCSF-BK001,2017-10-16 20:19:31+00:00,2017-10-25 14:31:52+00:00,,Sustained,12,510.99300384521484,390,Miss,1,0,0
ADMIN-UCSF-BK001,2017-10-16 20:19:31+00:00,2017-10-25 14:31:52+00:00,,Impulsive,13,N/A,280,Miss,1,0,1
ADMIN-UCSF-BK001,2017-10-16 20:19:31+00:00,2017-10-25 14:31:52+00:00,,Sustained,13,307.8240156173706,430,Hit,1,1,0
ADMIN-UCSF-BK001,2017-10-16 20:19:31+00:00,2017-10-25 14:31:52+00:00,,Impulsive,14,0,320,Correct Rejection,0,1,N/A
ADMIN-UCSF-BK001,2017-10-16 20:19:31+00:00,2017-10-25 14:31:52+00:00,,Sustained,14,369.09401416778564,420,Hit,1,1,0
ADMIN-UCSF-BK001,2017-10-16 20:19:31+00:00,2017-10-25 14:31:52+00:00,,Impulsive,15,463.8270139694214,320,Miss,1,0,0
ADMIN-UCSF-BK001,2017-10-16 20:19:31+00:00,2017-10-25 14:31:52+00:00,,Sustained,15,294.3750023841858,410,Hit,1,1,0
ADMIN-UCSF-BK001,2017-10-16 20:19:31+00:00,2017-10-25 14:31:52+00:00,,Impulsive,16,0,360,Correct Rejection,0,1,N/A
ADMIN-UCSF-BK001,2017-10-16 20:19:31+00:00,2017-10-25 14:31:52+00:00,,Sustained,16,307.170033454895,390,Hit,1,1,0
ADMIN-UCSF-BK001,2017-10-16 20:19:31+00:00,2017-10-25 14:31:52+00:00,,Impulsive,17,288.2329821586609,360,False Alarm,0,0,N/A
ADMIN-UCSF-BK001,2017-10-16 20:19:31+00:00,2017-10-25 14:31:52+00:00,,Sustained,17,439.49103355407715,350,Miss,1,0,0
ADMIN-UCSF-BK001,2017-10-16 20:19:31+00:00,2017-10-25 14:31:52+00:00,,Impulsive,18,0,400,Correct Rejection,0,1,N/A
ADMIN-UCSF-BK001,2017-10-16 20:19:31+00:00,2017-10-25 14:31:52+00:00,,Sustained,18,0,390,Correct Rejection,0,1,N/A
ADMIN-UCSF-BK001,2017-10-16 20:19:31+00:00,2017-10-25 14:31:52+00:00,,Impulsive,19,0,400,Correct Rejection,0,1,N/A
ADMIN-UCSF-BK001,2017-10-16 20:19:31+00:00,2017-10-25 14:31:52+00:00,,Sustained,19,0,390,Correct Rejection,0,1,N/A
ADMIN-UCSF-BK001,2017-10-16 20:19:31+00:00,2017-10-25 14:31:52+00:00,,Impulsive,20,0,400,Correct Rejection,0,1,N/A
ADMIN-UCSF-BK001,2017-10-16 20:19:31+00:00,2017-10-25 14:31:52+00:00,,Sustained,20,595.51602602005,390,Miss,1,0,0
ADMIN-UCSF-BK001,2017-10-16 20:19:31+00:00,2017-10-25 14:31:52+00:00,,Impulsive,21,0,400,Correct Rejection,0,1,N/A
ADMIN-UCSF-BK001,2017-10-16 20:19:31+00:00,2017-10-25 14:31:52+00:00,,Sustained,21,367.17796325683594,430,Hit,1,1,0
ADMIN-UCSF-BK001,2017-10-16 20:19:31+00:00,2017-10-25 14:31:52+00:00,,Impulsive,22,0,400,Correct Rejection,0,1,N/A
ADMIN-UCSF-BK001,2017-10-16 20:19:31+00:00,2017-10-25 14:31:52+00:00,,Sustained,22,413.2089614868164,420,False Alarm,0,0,N/A
ADMIN-UCSF-BK001,2017-10-16 20:19:31+00:00,2017-10-25 14:31:52+00:00,,Impulsive,23,0,400,Correct Rejection,0,1,N/A
ADMIN-UCSF-BK001,2017-10-16 20:19:31+00:00,2017-10-25 14:31:52+00:00,,Sustained,23,0,460,Correct Rejection,0,1,N/A
ADMIN-UCSF-BK001,2017-10-16 20:19:31+00:00,2017-10-25 14:31:52+00:00,,Impulsive,24,0,400,Correct Rejection,0,1,N/A
ADMIN-UCSF-BK001,2017-10-16 20:19:31+00:00,2017-10-25 14:31:52+00:00,,Sustained,24,0,460,Correct Rejection,0,1,N/A
ADMIN-UCSF-BK001,2017-10-16 20:19:31+00:00,2017-10-25 14:31:52+00:00,,Impulsive,25,0,400,Correct Rejection,0,1,N/A
ADMIN-UCSF-BK001,2017-10-16 20:19:31+00:00,2017-10-25 14:31:52+00:00,,Sustained,25,367.0119643211365,460,Hit,1,1,0
ADMIN-UCSF-BK001,2017-10-16 20:19:31+00:00,2017-10-25 14:31:52+00:00,,Impulsive,26,0,400,Correct Rejection,0,1,N/A
ADMIN-UCSF-BK001,2017-10-16 20:19:31+00:00,2017-10-25 14:31:52+00:00,,Sustained,26,482.0610284805298,450,Miss,1,0,0
ADMIN-UCSF-BK001,2017-10-16 20:19:31+00:00,2017-10-25 14:31:52+00:00,,Impulsive,27,0,400,Correct Rejection,0,1,N/A
ADMIN-UCSF-BK001,2017-10-16 20:19:31+00:00,2017-10-25 14:31:52+00:00,,Sustained,27,349.4899868965149,490,Hit,1,1,0
ADMIN-UCSF-BK001,2017-10-16 20:19:31+00:00,2017-10-25 14:31:52+00:00,,Impulsive,28,497.97797203063965,400,Miss,1,0,0
ADMIN-UCSF-BK001,2017-10-16 20:19:31+00:00,2017-10-25 14:31:52+00:00,,Sustained,28,446.9900131225586,480,Hit,1,1,0
ADMIN-UCSF-BK001,2017-10-16 20:19:31+00:00,2017-10-25 14:31:52+00:00,,Impulsive,29,439.02498483657837,440,Hit,1,1,0
ADMIN-UCSF-BK001,2017-10-16 20:19:31+00:00,2017-10-25 14:31:52+00:00,,Sustained,29,446.33203744888306,470,Hit,1,1,0
ADMIN-UCSF-BK001,2017-10-16 20:19:31+00:00,2017-10-25 14:31:52+00:00,,Impulsive,30,431.37699365615845,430,Miss,1,0,0
ADMIN-UCSF-BK001,2017-10-16 20:19:31+00:00,2017-10-25 14:31:52+00:00,,Sustained,30,401.28904581069946,450,Hit,1,1,0
ADMIN-UCSF-BK001,2017-10-16 20:19:31+00:00,2017-10-25 14:31:52+00:00,,Impulsive,31,0,470,Correct Rejection,0,1,N/A
ADMIN-UCSF-BK001,2017-10-16 20:19:31+00:00,2017-10-25 14:31:52+00:00,,Sustained,31,403.9049744606018,410,Hit,1,1,0
ADMIN-UCSF-BK001,2017-10-16 20:19:31+00:00,2017-10-25 14:31:52+00:00,,Impulsive,32,0,470,Correct Rejection,0,1,N/A
ADMIN-UCSF-BK001,2017-10-16 20:19:31+00:00,2017-10-25 14:31:52+00:00,,Sustained,32,429.23998832702637,330,Miss,1,0,0
ADMIN-UCSF-BK001,2017-10-16 20:19:31+00:00,2017-10-25 14:31:52+00:00,,Impulsive,33,0,470,Correct Rejection,0,1,N/A
ADMIN-UCSF-BK001,2017-10-16 20:19:31+00:00,2017-10-25 14:31:52+00:00,,Sustained,33,0,370,Correct Rejection,0,1,N/A
ADMIN-UCSF-BK001,2017-10-16 20:19:31+00:00,2017-10-25 14:31:52+00:00,,Impulsive,34,0,470,Correct Rejection,0,1,N/A
ADMIN-UCSF-BK001,2017-10-16 20:19:31+00:00,2017-10-25 14:31:52+00:00,,Sustained,34,0,370,Correct Rejection,0,1,N/A
ADMIN-UCSF-BK001,2017-10-16 20:19:31+00:00,2017-10-25 14:31:52+00:00,,Impulsive,35,565.2160048484802,470,Miss,1,0,0
ADMIN-UCSF-BK001,2017-10-16 20:19:31+00:00,2017-10-25 14:31:52+00:00,,Sustained,35,0,370,Correct Rejection,0,1,N/A
ADMIN-UCSF-BK001,2017-10-16 20:19:31+00:00,2017-10-25 14:31:52+00:00,,Impulsive,36,0,510,Correct Rejection,0,1,N/A
ADMIN-UCSF-BK001,2017-10-16 20:19:31+00:00,2017-10-25 14:31:52+00:00,,Sustained,36,418.6999797821045,370,Miss,1,0,0
ADMIN-UCSF-BK001,2017-10-16 20:19:31+00:00,2017-10-25 14:31:52+00:00,,Impulsive,37,0,510,Correct Rejection,0,1,N/A
ADMIN-UCSF-BK001,2017-10-16 20:19:31+00:00,2017-10-25 14:31:52+00:00,,Sustained,37,376.0640025138855,410,Hit,1,1,0
ADMIN-UCSF-BK001,2017-10-16 20:19:31+00:00,2017-10-25 14:31:52+00:00,,Impulsive,38,0,510,Correct Rejection,0,1,N/A
ADMIN-UCSF-BK001,2017-10-16 20:19:31+00:00,2017-10-25 14:31:52+00:00,,Sustained,38,0,400,Correct Rejection,0,1,N/A
ADMIN-UCSF-BK001,2017-10-16 20:19:31+00:00,2017-10-25 14:31:52+00:00,,Impulsive,39,0,510,Correct Rejection,0,1,N/A
ADMIN-UCSF-BK001,2017-10-16 20:19:31+00:00,2017-10-25 14:31:52+00:00,,Sustained,39,0,400,Correct Rejection,0,1,N/A
ADMIN-UCSF-BK007,2018-01-30 21:12:48+00:00,2018-02-02 21:20:48+00:00,,Impulsive,0,151.68297290802002,600,False Alarm,0,0,N/A
ADMIN-UCSF-BK007,2018-01-30 21:12:48+00:00,2018-02-02 21:20:48+00:00,,Sustained,0,0,600,Correct Rejection,0,1,N/A
ADMIN-UCSF-BK007,2018-01-30 21:12:48+00:00,2018-02-02 21:20:48+00:00,,Impulsive,1,272.5759744644165,640,Hit,1,1,0
ADMIN-UCSF-BK007,2018-01-30 21:12:48+00:00,2018-02-02 21:20:48+00:00,,Sustained,1,278.9820432662964,600,Hit,1,1,0
ADMIN-UCSF-BK007,2018-01-30 21:12:48+00:00,2018-02-02 21:20:48+00:00,,Impulsive,2,0,630,Correct Rejection,0,1,N/A
ADMIN-UCSF-BK007,2018-01-30 21:12:48+00:00,2018-02-02 21:20:48+00:00,,Sustained,2,445.94597816467285,590,Hit,1,1,0
ADMIN-UCSF-BK007,2018-01-30 21:12:48+00:00,2018-02-02 21:20:48+00:00,,Impulsive,3,0,630,Correct Rejection,0,1,N/A
ADMIN-UCSF-BK007,2018-01-30 21:12:48+00:00,2018-02-02 21:20:48+00:00,,Sustained,3,444.45300102233887,580,Hit,1,1,0
ADMIN-UCSF-BK007,2018-01-30 21:12:48+00:00,2018-02-02 21:20:48+00:00,,Impulsive,4,415.14599323272705,630,False Alarm,0,0,N/A
ADMIN-UCSF-BK007,2018-01-30 21:12:48+00:00,2018-02-02 21:20:48+00:00,,Sustained,4,0,560,Correct Rejection,0,1,N/A
ADMIN-UCSF-BK007,2018-01-30 21:12:48+00:00,2018-02-02 21:20:48+00:00,,Impulsive,5,0,670,Correct Rejection,0,1,N/A
ADMIN-UCSF-BK007,2018-01-30 21:12:48+00:00,2018-02-02 21:20:48+00:00,,Sustained,5,317.98505783081055,560,Hit,1,1,0
ADMIN-UCSF-BK007,2018-01-30 21:12:48+00:00,2018-02-02 21:20:48+00:00,,Impulsive,6,293.768048286438,670,Hit,1,1,0
ADMIN-UCSF-BK007,2018-01-30 21:12:48+00:00,2018-02-02 21:20:48+00:00,,Sustained,6,454.56790924072266,520,Hit,1,1,0
ADMIN-UCSF-BK007,2018-01-30 21:12:48+00:00,2018-02-02 21:20:48+00:00,,Impulsive,7,0,660,Correct Rejection,0,1,N/A
ADMIN-UCSF-BK007,2018-01-30 21:12:48+00:00,2018-02-02 21:20:48+00:00,,Sustained,7,352.1089553833008,440,Hit,1,1,0
ADMIN-UCSF-BK007,2018-01-30 21:12:48+00:00,2018-02-02 21:20:48+00:00,,Impulsive,8,476.64594650268555,660,Hit,1,1,0
ADMIN-UCSF-BK007,2018-01-30 21:12:48+00:00,2018-02-02 21:20:48+00:00,,Sustained,8,334.71500873565674,280,Miss,1,0,0
ADMIN-UCSF-BK007,2018-01-30 21:12:48+00:00,2018-02-02 21:20:48+00:00,,Impulsive,9,0,650,Correct Rejection,0,1,N/A
ADMIN-UCSF-BK007,2018-01-30 21:12:48+00:00,2018-02-02 21:20:48+00:00,,Sustained,9,235.2370023727417,320,Hit,1,1,0
ADMIN-UCSF-BK007,2018-01-30 21:12:48+00:00,2018-02-02 21:20:48+00:00,,Impulsive,10,0,650,Correct Rejection,0,1,N/A
ADMIN-UCSF-BK007,2018-01-30 21:12:48+00:00,2018-02-02 21:20:48+00:00,,Sustained,10,251.0550022125244,310,Hit,1,1,0
ADMIN-UCSF-BK007,2018-01-30 21:12:48+00:00,2018-02-02 21:20:48+00:00,,Impulsive,11,0,650,Correct Rejection,0,1,N/A
ADMIN-UCSF-BK007,2018-01-30 21:12:48+00:00,2018-02-02 21:20:48+00:00,,Sustained,11,N/A,300,Miss,1,0,1
ADMIN-UCSF-BK007,2018-01-30 21:12:48+00:00,2018-02-02 21:20:48+00:00,,Impulsive,12,0,650,Correct Rejection,0,1,N/A
ADMIN-UCSF-BK007,2018-01-30 21:12:48+00:00,2018-02-02 21:20:48+00:00,,Sustained,12,335.83199977874756,340,Hit,1,1,0
ADMIN-UCSF-BK007,2018-01-30 21:12:48+00:00,2018-02-02 21:20:48+00:00,,Impulsive,13,0,650,Correct Rejection,0,1,N/A
ADMIN-UCSF-BK007,2018-01-30 21:12:48+00:00,2018-02-02 21:20:48+00:00,,Sustained,13,333.97603034973145,330,False Alarm,0,0,N/A
ADMIN-UCSF-BK007,2018-01-30 21:12:48+00:00,2018-02-02 21:20:48+00:00,,Impulsive,14,0,650,Correct Rejection,0,1,N/A
ADMIN-UCSF-BK007,2018-01-30 21:12:48+00:00,2018-02-02 21:20:48+00:00,,Sustained,14,391.9459581375122,370,Miss,1,0,0
ADMIN-UCSF-BK007,2018-01-30 21:12:48+00:00,2018-02-02 21:20:48+00:00,,Impulsive,15,0,650,Correct Rejection,0,1,N/A
ADMIN-UCSF-BK007,2018-01-30 21:12:48+00:00,2018-02-02 21:20:48+00:00,,Sustained,15,0,410,Correct Rejection,0,1,N/A
ADMIN-UCSF-BK007,2018-01-30 21:12:48+00:00,2018-02-02 21:20:48+00:00,,Impulsive,16,N/A,650,Miss,1,0,1
ADMIN-UCSF-BK007,2018-01-30 21:12:48+00:00,2018-02-02 21:20:48+00:00,,Sustained,16,255.35905361175537,410,Hit,1,1,0
ADMIN-UCSF-BK007,2018-01-30 21:12:48+00:00,2018-02-02 21:20:48+00:00,,Impulsive,17,0,690,Correct Rejection,0,1,N/A
ADMIN-UCSF-BK007,2018-01-30 21:12:48+00:00,2018-02-02 21:20:48+00:00,,Sustained,17,0,400,Correct Rejection,0,1,N/A
ADMIN-UCSF-BK007,2018-01-30 21:12:48+00:00,2018-02-02 21:20:48+00:00,,Impulsive,18,0,690,Correct Rejection,0,1,N/A
ADMIN-UCSF-BK007,2018-01-30 21:12:48+00:00,2018-02-02 21:20:48+00:00,,Sustained,18,72.45206832885742,400,False Alarm,0,0,N/A
ADMIN-UCSF-BK007,2018-01-30 21:12:48+00:00,2018-02-02 21:20:48+00:00,,Impulsive,19,0,690,Correct Rejection,0,1,N/A
ADMIN-UCSF-BK007,2018-01-30 21:12:48+00:00,2018-02-02 21:20:48+00:00,,Sustained,19,592.1989679336548,440,Miss,1,0,0
ADMIN-UCSF-BK007,2018-01-30 21:12:48+00:00,2018-02-02 21:20:48+00:00,,Impulsive,20,0,690,Correct Rejection,0,1,N/A
ADMIN-UCSF-BK007,2018-01-30 21:12:48+00:00,2018-02-02 21:20:48+00:00,,Sustained,20,0,480,Correct Rejection,0,1,N/A
ADMIN-UCSF-BK007,2018-01-30 21:12:48+00:00,2018-02-02 21:20:48+00:00,,Impulsive,21,0,690,Correct Rejection,0,1,N/A
ADMIN-UCSF-BK007,2018-01-30 21:12:48+00:00,2018-02-02 21:20:48+00:00,,Sustained,21,249.49109554290771,480,Hit,1,1,0
ADMIN-UCSF-BK007,2018-01-30 21:12:48+00:00,2018-02-02 21:20:48+00:00,,Impulsive,22,0,690,Correct Rejection,0,1,N/A
ADMIN-UCSF-BK007,2018-01-30 21:12:48+00:00,2018-02-02 21:20:48+00:00,,Sustained,22,N/A,470,Miss,1,0,1
ADMIN-UCSF-BK007,2018-01-30 21:12:48+00:00,2018-02-02 21:20:48+00:00,,Impulsive,23,0,690,Correct Rejection,0,1,N/A
ADMIN-UCSF-BK007,2018-01-30 21:12:48+00:00,2018-02-02 21:20:48+00:00,,Sustained,23,N/A,510,Miss,1,0,1
ADMIN-UCSF-BK007,2018-01-30 21:12:48+00:00,2018-02-02 21:20:48+00:00,,Impulsive,24,N/A,690,Miss,1,0,1
ADMIN-UCSF-BK007,2018-01-30 21:12:48+00:00,2018-02-02 21:20:48+00:00,,Sustained,24,468.62590312957764,550,Hit,1,1,0
ADMIN-UCSF-BK007,2018-01-30 21:12:48+00:00,2018-02-02 21:20:48+00:00,,Impulsive,25,480.707049369812,730,Hit,1,1,0
ADMIN-UCSF-BK007,2018-01-30 21:12:48+00:00,2018-02-02 21:20:48+00:00,,Sustained,25,N/A,540,Miss,1,0,1
ADMIN-UCSF-BK007,2018-01-30 21:12:48+00:00,2018-02-02 21:20:48+00:00,,Impulsive,26,696.8899965286255,720,Hit,1,1,0
ADMIN-UCSF-BK007,2018-01-30 21:12:48+00:00,2018-02-02 21:20:48+00:00,,Sustained,26,0,580,Correct Rejection,0,1,N/A
ADMIN-UCSF-BK007,2018-01-30 21:12:48+00:00,2018-02-02 21:20:48+00:00,,Impulsive,27,429.7020435333252,710,Hit,1,1,0
ADMIN-UCSF-BK007,2018-01-30 21:12:48+00:00,2018-02-02 21:20:48+00:00,,Sustained,27,98.24895858764648,580,Miss,1,0,1
ADMIN-UCSF-BK007,2018-01-30 21:12:48+00:00,2018-02-02 21:20:48+00:00,,Impulsive,28,372.8090524673462,690,Hit,1,1,0
ADMIN-UCSF-BK007,2018-01-30 21:12:48+00:00,2018-02-02 21:20:48+00:00,,Sustained,28,387.98701763153076,620,False Alarm,0,0,N/A
ADMIN-UCSF-BK007,2018-01-30 21:12:48+00:00,2018-02-02 21:20:48+00:00,,Impulsive,29,0,650,Correct Rejection,0,1,N/A
ADMIN-UCSF-BK007,2018-01-30 21:12:48+00:00,2018-02-02 21:20:48+00:00,,Sustained,29,520.5329656600952,660,Hit,1,1,0
ADMIN-UCSF-BK007,2018-01-30 21:12:48+00:00,2018-02-02 21:20:48+00:00,,Impulsive,30,0,650,Correct Rejection,0,1,N/A
ADMIN-UCSF-BK007,2018-01-30 21:12:48+00:00,2018-02-02 21:20:48+00:00,,Sustained,30,562.1310472488403,650,Hit,1,1,0
ADMIN-UCSF-BK007,2018-01-30 21:12:48+00:00,2018-02-02 21:20:48+00:00,,Impulsive,31,0,650,Correct Rejection,0,1,N/A
ADMIN-UCSF-BK007,2018-01-30 21:12:48+00:00,2018-02-02 21:20:48+00:00,,Sustained,31,322.46696949005127,640,False Alarm,0,0,N/A
ADMIN-UCSF-BK007,2018-01-30 21:12:48+00:00,2018-02-02 21:20:48+00:00,,Impulsive,32,0,650,Correct Rejection,0,1,N/A
ADMIN-UCSF-BK007,2018-01-30 21:12:48+00:00,2018-02-02 21:20:48+00:00,,Sustained,32,347.5229740142822,680,False Alarm,0,0,N/A
ADMIN-UCSF-BK007,2018-01-30 21:12:48+00:00,2018-02-02 21:20:48+00:00,,Impulsive,33,0,650,Correct Rejection,0,1,N/A
ADMIN-UCSF-BK007,2018-01-30 21:12:48+00:00,2018-02-02 21:20:48+00:00,,Sustained,33,338.32502365112305,720,Hit,1,1,0
ADMIN-UCSF-BK007,2018-01-30 21:12:48+00:00,2018-02-02 21:20:48+00:00,,Impulsive,34,0,650,Correct Rejection,0,1,N/A
ADMIN-UCSF-BK007,2018-01-30 21:12:48+00:00,2018-02-02 21:20:48+00:00,,Sustained,34,379.40406799316406,710,Hit,1,1,0
ADMIN-UCSF-BK007,2018-01-30 21:12:48+00:00,2018-02-02 21:20:48+00:00,,Impulsive,35,544.3439483642578,650,Hit,1,1,0
ADMIN-UCSF-BK007,2018-01-30 21:12:48+00:00,2018-02-02 21:20:48+00:00,,Sustained,35,306.1729669570923,700,Hit,1,1,0
ADMIN-UCSF-BK007,2018-01-30 21:12:48+00:00,2018-02-02 21:20:48+00:00,,Impulsive,36,479.4811010360718,570,Hit,1,1,0
ADMIN-UCSF-BK007,2018-01-30 21:12:48+00:00,2018-02-02 21:20:48+00:00,,Sustained,36,267.177939414978,680,Hit,1,1,0
ADMIN-UCSF-BK007,2018-01-30 21:12:48+00:00,2018-02-02 21:20:48+00:00,,Impulsive,37,372.8959560394287,410,False Alarm,0,0,N/A
ADMIN-UCSF-BK007,2018-01-30 21:12:48+00:00,2018-02-02 21:20:48+00:00,,Sustained,37,287.4199151992798,640,Hit,1,1,0
ADMIN-UCSF-BK007,2018-01-30 21:12:48+00:00,2018-02-02 21:20:48+00:00,,Impulsive,38,0,450,Correct Rejection,0,1,N/A
ADMIN-UCSF-BK007,2018-01-30 21:12:48+00:00,2018-02-02 21:20:48+00:00,,Sustained,38,368.5520887374878,560,Hit,1,1,0
ADMIN-UCSF-BK007,2018-01-30 21:12:48+00:00,2018-02-02 21:20:48+00:00,,Impulsive,39,N/A,450,Miss,1,0,1
ADMIN-UCSF-BK007,2018-01-30 21:12:48+00:00,2018-02-02 21:20:48+00:00,,Sustained,39,0,400,Correct Rejection,0,1,N/A
ADMIN-UCSF-BK008,2018-01-30 21:32:44+00:00,2018-02-02 21:20:48+00:00,,Impulsive,0,451.11703872680664,600,Hit,1,1,0
ADMIN-UCSF-BK008,2018-01-30 21:32:44+00:00,2018-02-02 21:20:48+00:00,,Sustained,0,0,600,Correct Rejection,0,1,N/A
ADMIN-UCSF-BK008,2018-01-30 21:32:44+00:00,2018-02-02 21:20:48+00:00,,Impulsive,1,0,590,Correct Rejection,0,1,N/A
ADMIN-UCSF-BK008,2018-01-30 21:32:44+00:00,2018-02-02 21:20:48+00:00,,Sustained,1,345.04103660583496,600,Hit,1,1,0
ADMIN-UCSF-BK008,2018-01-30 21:32:44+00:00,2018-02-02 21:20:48+00:00,,Impulsive,2,316.459059715271,590,Hit,1,1,0
ADMIN-UCSF-BK008,2018-01-30 21:32:44+00:00,2018-02-02 21:20:48+00:00,,Sustained,2,426.5979528427124,590,Hit,1,1,0
ADMIN-UCSF-BK008,2018-01-30 21:32:44+00:00,2018-02-02 21:20:48+00:00,,Impulsive,3,338.4430408477783,580,False Alarm,0,0,N/A
ADMIN-UCSF-BK008,2018-01-30 21:32:44+00:00,2018-02-02 21:20:48+00:00,,Sustained,3,0,580,Correct Rejection,0,1,N/A
ADMIN-UCSF-BK008,2018-01-30 21:32:44+00:00,2018-02-02 21:20:48+00:00,,Impulsive,4,432.7960014343262,620,False Alarm,0,0,N/A
ADMIN-UCSF-BK008,2018-01-30 21:32:44+00:00,2018-02-02 21:20:48+00:00,,Sustained,4,332.84592628479004,580,Hit,1,1,0
ADMIN-UCSF-BK008,2018-01-30 21:32:44+00:00,2018-02-02 21:20:48+00:00,,Impulsive,5,484.86006259918213,660,Hit,1,1,0
ADMIN-UCSF-BK008,2018-01-30 21:32:44+00:00,2018-02-02 21:20:48+00:00,,Sustained,5,0,560,Correct Rejection,0,1,N/A
ADMIN-UCSF-BK008,2018-01-30 21:32:44+00:00,2018-02-02 21:20:48+00:00,,Impulsive,6,0,650,Correct Rejection,0,1,N/A
ADMIN-UCSF-BK008,2018-01-30 21:32:44+00:00,2018-02-02 21:20:48+00:00,,Sustained,6,0,560,Correct Rejection,0,1,N/A
ADMIN-UCSF-BK008,2018-01-30 21:32:44+00:00,2018-02-02 21:20:48+00:00,,Impulsive,7,252.2519826889038,650,Hit,1,1,0
ADMIN-UCSF-BK008,2018-01-30 21:32:44+00:00,2018-02-02 21:20:48+00:00,,Sustained,7,276.4270305633545,560,Hit,1,1,0
ADMIN-UCSF-BK008,2018-01-30 21:32:44+00:00,2018-02-02 21:20:48+00:00,,Impulsive,8,N/A,640,Miss,1,0,1
ADMIN-UCSF-BK008,2018-01-30 21:32:44+00:00,2018-02-02 21:20:48+00:00,,Sustained,8,0,520,Correct Rejection,0,1,N/A
ADMIN-UCSF-BK008,2018-01-30 21:32:44+00:00,2018-02-02 21:20:48+00:00,,Impulsive,9,0,680,Correct Rejection,0,1,N/A
ADMIN-UCSF-BK008,2018-01-30 21:32:44+00:00,2018-02-02 21:20:48+00:00,,Sustained,9,281.95106983184814,520,Hit,1,1,0
ADMIN-UCSF-BK008,2018-01-30 21:32:44+00:00,2018-02-02 21:20:48+00:00,,Impulsive,10,0,680,Correct Rejection,0,1,N/A
ADMIN-UCSF-BK008,2018-01-30 21:32:44+00:00,2018-02-02 21:20:48+00:00,,Sustained,10,458.3740234375,440,Miss,1,0,0
ADMIN-UCSF-BK008,2018-01-30 21:32:44+00:00,2018-02-02 21:20:48+00:00,,Impulsive,11,0,680,Correct Rejection,0,1,N/A
ADMIN-UCSF-BK008,2018-01-30 21:32:44+00:00,2018-02-02 21:20:48+00:00,,Sustained,11,348.29795360565186,480,Hit,1,1,0
ADMIN-UCSF-BK008,2018-01-30 21:32:44+00:00,2018-02-02 21:20:48+00:00,,Impulsive,12,0,680,Correct Rejection,0,1,N/A
ADMIN-UCSF-BK008,2018-01-30 21:32:44+00:00,2018-02-02 21:20:48+00:00,,Sustained,12,293.18201541900635,470,Hit,1,1,0
ADMIN-UCSF-BK008,2018-01-30 21:32:44+00:00,2018-02-02 21:20:48+00:00,,Impulsive,13,435.9090328216553,680,Hit,1,1,0
ADMIN-UCSF-BK008,2018-01-30 21:32:44+00:00,2018-02-02 21:20:48+00:00,,Sustained,13,394.089937210083,460,Hit,1,1,0
ADMIN-UCSF-BK008,2018-01-30 21:32:44+00:00,2018-02-02 21:20:48+00:00,,Impulsive,14,0,670,Correct Rejection,0,1,N/A
ADMIN-UCSF-BK008,2018-01-30 21:32:44+00:00,2018-02-02 21:20:48+00:00,,Sustained,14,413.1510257720947,440,Hit,1,1,0
ADMIN-UCSF-BK008,2018-01-30 21:32:44+00:00,2018-02-02 21:20:48+00:00,,Impulsive,15,0,670,Correct Rejection,0,1,N/A
ADMIN-UCSF-BK008,2018-01-30 21:32:44+00:00,2018-02-02 21:20:48+00:00,,Sustained,15,400.62594413757324,400,Miss,1,0,0
ADMIN-UCSF-BK008,2018-01-30 21:32:44+00:00,2018-02-02 21:20:48+00:00,,Impulsive,16,0,670,Correct Rejection,0,1,N/A
ADMIN-UCSF-BK008,2018-01-30 21:32:44+00:00,2018-02-02 21:20:48+00:00,,Sustained,16,0,440,Correct Rejection,0,1,N/A
ADMIN-UCSF-BK008,2018-01-30 21:32:44+00:00,2018-02-02 21:20:48+00:00,,Impulsive,17,0,670,Correct Rejection,0,1,N/A
ADMIN-UCSF-BK008,2018-01-30 21:32:44+00:00,2018-02-02 21:20:48+00:00,,Sustained,17,352.3629903793335,440,Hit,1,1,0
ADMIN-UCSF-BK008,2018-01-30 21:32:44+00:00,2018-02-02 21:20:48+00:00,,Impulsive,18,332.8690528869629,670,Hit,1,1,0
ADMIN-UCSF-BK008,2018-01-30 21:32:44+00:00,2018-02-02 21:20:48+00:00,,Sustained,18,386.68906688690186,430,Hit,1,1,0
ADMIN-UCSF-BK008,2018-01-30 21:32:44+00:00,2018-02-02 21:20:48+00:00,,Impulsive,19,0,660,Correct Rejection,0,1,N/A
ADMIN-UCSF-BK008,2018-01-30 21:32:44+00:00,2018-02-02 21:20:48+00:00,,Sustained,19,0,420,Correct Rejection,0,1,N/A
ADMIN-UCSF-BK008,2018-01-30 21:32:44+00:00,2018-02-02 21:20:48+00:00,,Impulsive,20,0,660,Correct Rejection,0,1,N/A
ADMIN-UCSF-BK008,2018-01-30 21:32:44+00:00,2018-02-02 21:20:48+00:00,,Sustained,20,299.8340129852295,420,Hit,1,1,0
ADMIN-UCSF-BK008,2018-01-30 21:32:44+00:00,2018-02-02 21:20:48+00:00,,Impulsive,21,0,660,Correct Rejection,0,1,N/A
ADMIN-UCSF-BK008,2018-01-30 21:32:44+00:00,2018-02-02 21:20:48+00:00,,Sustained,21,331.49802684783936,400,Hit,1,1,0
ADMIN-UCSF-BK008,2018-01-30 21:32:44+00:00,2018-02-02 21:20:48+00:00,,Impulsive,22,0,660,Correct Rejection,0,1,N/A
ADMIN-UCSF-BK008,2018-01-30 21:32:44+00:00,2018-02-02 21:20:48+00:00,,Sustained,22,383.90493392944336,360,Miss,1,0,0
ADMIN-UCSF-BK008,2018-01-30 21:32:44+00:00,2018-02-02 21:20:48+00:00,,Impulsive,23,0,660,Correct Rejection,0,1,N/A
ADMIN-UCSF-BK008,2018-01-30 21:32:44+00:00,2018-02-02 21:20:48+00:00,,Sustained,23,0,400,Correct Rejection,0,1,N/A
ADMIN-UCSF-BK008,2018-01-30 21:32:44+00:00,2018-02-02 21:20:48+00:00,,Impulsive,24,0,660,Correct Rejection,0,1,N/A
ADMIN-UCSF-BK008,2018-01-30 21:32:44+00:00,2018-02-02 21:20:48+00:00,,Sustained,24,315.3339624404907,400,Hit,1,1,0
ADMIN-UCSF-BK008,2018-01-30 21:32:44+00:00,2018-02-02 21:20:48+00:00,,Impulsive,25,349.2929935455322,660,Hit,1,1,0
ADMIN-UCSF-BK008,2018-01-30 21:32:44+00:00,2018-02-02 21:20:48+00:00,,Sustained,25,360.78405380249023,390,Hit,1,1,0
ADMIN-UCSF-BK008,2018-01-30 21:32:44+00:00,2018-02-02 21:20:48+00:00,,Impulsive,26,0,640,Correct Rejection,0,1,N/A
ADMIN-UCSF-BK008,2018-01-30 21:32:44+00:00,2018-02-02 21:20:48+00:00,,Sustained,26,286.4619493484497,380,Hit,1,1,0
ADMIN-UCSF-BK008,2018-01-30 21:32:44+00:00,2018-02-02 21:20:48+00:00,,Impulsive,27,345.9279537200928,640,Hit,1,1,0
ADMIN-UCSF-BK008,2018-01-30 21:32:44+00:00,2018-02-02 21:20:48+00:00,,Sustained,27,300.3190755844116,360,Hit,1,1,0
ADMIN-UCSF-BK008,2018-01-30 21:32:44+00:00,2018-02-02 21:20:48+00:00,,Impulsive,28,448.40002059936523,600,Hit,1,1,0
ADMIN-UCSF-BK008,2018-01-30 21:32:44+00:00,2018-02-02 21:20:48+00:00,,Sustained,28,291.80407524108887,320,Hit,1,1,0
ADMIN-UCSF-BK008,2018-01-30 21:32:44+00:00,2018-02-02 21:20:48+00:00,,Impulsive,29,0,520,Correct Rejection,0,1,N/A
ADMIN-UCSF-BK008,2018-01-30 21:32:44+00:00,2018-02-02 21:20:48+00:00,,Sustained,29,0,240,Correct Rejection,0,1,N/A
ADMIN-UCSF-BK008,2018-01-30 21:32:44+00:00,2018-02-02 21:20:48+00:00,,Impulsive,30,0,520,Correct Rejection,0,1,N/A
ADMIN-UCSF-BK008,2018-01-30 21:32:44+00:00,2018-02-02 21:20:48+00:00,,Sustained,30,0,240,Correct Rejection,0,1,N/A
ADMIN-UCSF-BK008,2018-01-30 21:32:44+00:00,2018-02-02 21:20:48+00:00,,Impulsive,31,0,520,Correct Rejection,0,1,N/A
ADMIN-UCSF-BK008,2018-01-30 21:32:44+00:00,2018-02-02 21:20:48+00:00,,Sustained,31,268.4580087661743,240,Miss,1,0,0
ADMIN-UCSF-BK008,2018-01-30 21:32:44+00:00,2018-02-02 21:20:48+00:00,,Impulsive,32,0,520,Correct Rejection,0,1,N/A
ADMIN-UCSF-BK008,2018-01-30 21:32:44+00:00,2018-02-02 21:20:48+00:00,,Sustained,32,0,280,Correct Rejection,0,1,N/A
ADMIN-UCSF-BK008,2018-01-30 21:32:44+00:00,2018-02-02 21:20:48+00:00,,Impulsive,33,0,520,Correct Rejection,0,1,N/A
ADMIN-UCSF-BK008,2018-01-30 21:32:44+00:00,2018-02-02 21:20:48+00:00,,Sustained,33,267.61698722839355,280,Hit,1,1,0
ADMIN-UCSF-BK008,2018-01-30 21:32:44+00:00,2018-02-02 21:20:48+00:00,,Impulsive,34,0,520,Correct Rejection,0,1,N/A
ADMIN-UCSF-BK008,2018-01-30 21:32:44+00:00,2018-02-02 21:20:48+00:00,,Sustained,34,427.298903465271,270,Miss,1,0,0
ADMIN-UCSF-BK008,2018-01-30 21:32:44+00:00,2018-02-02 21:20:48+00:00,,Impulsive,35,443.9650774002075,520,Hit,1,1,0
ADMIN-UCSF-BK008,2018-01-30 21:32:44+00:00,2018-02-02 21:20:48+00:00,,Sustained,35,371.52302265167236,310,Miss,1,0,0
ADMIN-UCSF-BK008,2018-01-30 21:32:44+00:00,2018-02-02 21:20:48+00:00,,Impulsive,36,329.9579620361328,360,False Alarm,0,0,N/A
ADMIN-UCSF-BK008,2018-01-30 21:32:44+00:00,2018-02-02 21:20:48+00:00,,Sustained,36,280.4539203643799,350,Hit,1,1,0
ADMIN-UCSF-BK008,2018-01-30 21:32:44+00:00,2018-02-02 21:20:48+00:00,,Impulsive,37,474.8319387435913,400,Miss,1,0,0
ADMIN-UCSF-BK008,2018-01-30 21:32:44+00:00,2018-02-02 21:20:48+00:00,,Sustained,37,302.9289245605469,340,False Alarm,0,0,N/A
ADMIN-UCSF-BK008,2018-01-30 21:32:44+00:00,2018-02-02 21:20:48+00:00,,Impulsive,38,0,440,Correct Rejection,0,1,N/A
ADMIN-UCSF-BK008,2018-01-30 21:32:44+00:00,2018-02-02 21:20:48+00:00,,Sustained,38,N/A,380,Miss,1,0,1
ADMIN-UCSF-BK008,2018-01-30 21:32:44+00:00,2018-02-02 21:20:48+00:00,,Impulsive,39,0,440,Correct Rejection,0,1,N/A
ADMIN-UCSF-BK008,2018-01-30 21:32:44+00:00,2018-02-02 21:20:48+00:00,,Sustained,39,332.0939540863037,420,Hit,1,1,0
ADMIN-UCSF-BK010,2018-01-30 21:58:54+00:00,2018-02-02 21:20:48+00:00,,Impulsive,0,0,600,Correct Rejection,0,1,N/A
ADMIN-UCSF-BK010,2018-01-30 21:58:54+00:00,2018-02-02 21:20:48+00:00,,Sustained,0,409.3700647354126,600,Hit,1,1,0
ADMIN-UCSF-BK010,2018-01-30 21:58:54+00:00,2018-02-02 21:20:48+00:00,,Impulsive,1,375.64408779144287,600,Hit,1,1,0
ADMIN-UCSF-BK010,2018-01-30 21:58:54+00:00,2018-02-02 21:20:48+00:00,,Sustained,1,444.32294368743896,590,Hit,1,1,0
ADMIN-UCSF-BK010,2018-01-30 21:58:54+00:00,2018-02-02 21:20:48+00:00,,Impulsive,2,0,590,Correct Rejection,0,1,N/A
ADMIN-UCSF-BK010,2018-01-30 21:58:54+00:00,2018-02-02 21:20:48+00:00,,Sustained,2,392.8450345993042,580,Hit,1,1,0
ADMIN-UCSF-BK010,2018-01-30 21:58:54+00:00,2018-02-02 21:20:48+00:00,,Impulsive,3,360.27705669403076,590,Hit,1,1,0
ADMIN-UCSF-BK010,2018-01-30 21:58:54+00:00,2018-02-02 21:20:48+00:00,,Sustained,3,368.98303031921387,560,Hit,1,1,0
ADMIN-UCSF-BK010,2018-01-30 21:58:54+00:00,2018-02-02 21:20:48+00:00,,Impulsive,4,401.33893489837646,580,Hit,1,1,0
ADMIN-UCSF-BK010,2018-01-30 21:58:54+00:00,2018-02-02 21:20:48+00:00,,Sustained,4,358.53302478790283,520,Hit,1,1,0
ADMIN-UCSF-BK010,2018-01-30 21:58:54+00:00,2018-02-02 21:20:48+00:00,,Impulsive,5,0,560,Correct Rejection,0,1,N/A
ADMIN-UCSF-BK010,2018-01-30 21:58:54+00:00,2018-02-02 21:20:48+00:00,,Sustained,5,365.16404151916504,440,Hit,1,1,0
ADMIN-UCSF-BK010,2018-01-30 21:58:54+00:00,2018-02-02 21:20:48+00:00,,Impulsive,6,0,560,Correct Rejection,0,1,N/A
ADMIN-UCSF-BK010,2018-01-30 21:58:54+00:00,2018-02-02 21:20:48+00:00,,Sustained,6,357.9699993133545,280,Miss,1,0,0
ADMIN-UCSF-BK010,2018-01-30 21:58:54+00:00,2018-02-02 21:20:48+00:00,,Impulsive,7,411.0279083251953,560,Hit,1,1,0
ADMIN-UCSF-BK010,2018-01-30 21:58:54+00:00,2018-02-02 21:20:48+00:00,,Sustained,7,333.732008934021,320,Miss,1,0,0
ADMIN-UCSF-BK010,2018-01-30 21:58:54+00:00,2018-02-02 21:20:48+00:00,,Impulsive,8,0,520,Correct Rejection,0,1,N/A
ADMIN-UCSF-BK010,2018-01-30 21:58:54+00:00,2018-02-02 21:20:48+00:00,,Sustained,8,560.7320070266724,360,False Alarm,0,0,N/A
ADMIN-UCSF-BK010,2018-01-30 21:58:54+00:00,2018-02-02 21:20:48+00:00,,Impulsive,9,0,520,Correct Rejection,0,1,N/A
ADMIN-UCSF-BK010,2018-01-30 21:58:54+00:00,2018-02-02 21:20:48+00:00,,Sustained,9,276.2899398803711,440,Hit,1,1,0
ADMIN-UCSF-BK010,2018-01-30 21:58:54+00:00,2018-02-02 21:20:48+00:00,,Impulsive,10,380.51295280456543,520,Hit,1,1,0
ADMIN-UCSF-BK010,2018-01-30 21:58:54+00:00,2018-02-02 21:20:48+00:00,,Sustained,10,0,430,Correct Rejection,0,1,N/A
ADMIN-UCSF-BK010,2018-01-30 21:58:54+00:00,2018-02-02 21:20:48+00:00,,Impulsive,11,0,440,Correct Rejection,0,1,N/A
ADMIN-UCSF-BK010,2018-01-30 21:58:54+00:00,2018-02-02 21:20:48+00:00,,Sustained,11,0,430,Correct Rejection,0,1,N/A
ADMIN-UCSF-BK010,2018-01-30 21:58:54+00:00,2018-02-02 21:20:48+00:00,,Impulsive,12,0,440,Correct Rejection,0,1,N/A
ADMIN-UCSF-BK010,2018-01-30 21:58:54+00:00,2018-02-02 21:20:48+00:00,,Sustained,12,0,430,Correct Rejection,0,1,N/A
ADMIN-UCSF-BK010,2018-01-30 21:58:54+00:00,2018-02-02 21:20:48+00:00,,Impulsive,13,0,440,Correct Rejection,0,1,N/A
ADMIN-UCSF-BK010,2018-01-30 21:58:54+00:00,2018-02-02 21:20:48+00:00,,Sustained,13,0,430,Correct Rejection,0,1,N/A
ADMIN-UCSF-BK010,2018-01-30 21:58:54+00:00,2018-02-02 21:20:48+00:00,,Impulsive,14,0,440,Correct Rejection,0,1,N/A
ADMIN-UCSF-BK010,2018-01-30 21:58:54+00:00,2018-02-02 21:20:48+00:00,,Sustained,14,427.2040128707886,430,Hit,1,1,0
ADMIN-UCSF-BK010,2018-01-30 21:58:54+00:00,2018-02-02 21:20:48+00:00,,Impulsive,15,0,440,Correct Rejection,0,1,N/A
ADMIN-UCSF-BK010,2018-01-30 21:58:54+00:00,2018-02-02 21:20:48+00:00,,Sustained,15,374.04394149780273,420,Hit,1,1,0
ADMIN-UCSF-BK010,2018-01-30 21:58:54+00:00,2018-02-02 21:20:48+00:00,,Impulsive,16,357.31709003448486,440,Hit,1,1,0
ADMIN-UCSF-BK010,2018-01-30 21:58:54+00:00,2018-02-02 21:20:48+00:00,,Sustained,16,390.80989360809326,400,Hit,1,1,0
ADMIN-UCSF-BK010,2018-01-30 21:58:54+00:00,2018-02-02 21:20:48+00:00,,Impulsive,17,0,280,Correct Rejection,0,1,N/A
ADMIN-UCSF-BK010,2018-01-30 21:58:54+00:00,2018-02-02 21:20:48+00:00,,Sustained,17,392.06504821777344,360,Miss,1,0,0
ADMIN-UCSF-BK010,2018-01-30 21:58:54+00:00,2018-02-02 21:20:48+00:00,,Impulsive,18,0,280,Correct Rejection,0,1,N/A
ADMIN-UCSF-BK010,2018-01-30 21:58:54+00:00,2018-02-02 21:20:48+00:00,,Sustained,18,349.079966545105,400,Hit,1,1,0
ADMIN-UCSF-BK010,2018-01-30 21:58:54+00:00,2018-02-02 21:20:48+00:00,,Impulsive,19,0,280,Correct Rejection,0,1,N/A
ADMIN-UCSF-BK010,2018-01-30 21:58:54+00:00,2018-02-02 21:20:48+00:00,,Sustained,19,332.74710178375244,390,False Alarm,0,0,N/A
ADMIN-UCSF-BK010,2018-01-30 21:58:54+00:00,2018-02-02 21:20:48+00:00,,Impulsive,20,421.01800441741943,280,Miss,1,0,0
ADMIN-UCSF-BK010,2018-01-30 21:58:54+00:00,2018-02-02 21:20:48+00:00,,Sustained,20,433.11607837677,430,Miss,1,0,0
ADMIN-UCSF-BK010,2018-01-30 21:58:54+00:00,2018-02-02 21:20:48+00:00,,Impulsive,21,0,320,Correct Rejection,0,1,N/A
ADMIN-UCSF-BK010,2018-01-30 21:58:54+00:00,2018-02-02 21:20:48+00:00,,Sustained,21,541.6519641876221,470,Miss,1,0,0
ADMIN-UCSF-BK010,2018-01-30 21:58:54+00:00,2018-02-02 21:20:48+00:00,,Impulsive,22,0,320,Correct Rejection,0,1,N/A
ADMIN-UCSF-BK010,2018-01-30 21:58:54+00:00,2018-02-02 21:20:48+00:00,,Sustained,22,364.23397064208984,550,Hit,1,1,0
ADMIN-UCSF-BK010,2018-01-30 21:58:54+00:00,2018-02-02 21:20:48+00:00,,Impulsive,23,429.4079542160034,320,Miss,1,0,0
ADMIN-UCSF-BK010,2018-01-30 21:58:54+00:00,2018-02-02 21:20:48+00:00,,Sustained,23,0,540,Correct Rejection,0,1,N/A
ADMIN-UCSF-BK010,2018-01-30 21:58:54+00:00,2018-02-02 21:20:48+00:00,,Impulsive,24,0,360,Correct Rejection,0,1,N/A
ADMIN-UCSF-BK010,2018-01-30 21:58:54+00:00,2018-02-02 21:20:48+00:00,,Sustained,24,475.15106201171875,540,Hit,1,1,0
ADMIN-UCSF-BK010,2018-01-30 21:58:54+00:00,2018-02-02 21:20:48+00:00,,Impulsive,25,412.06109523773193,360,Miss,1,0,0
ADMIN-UCSF-BK010,2018-01-30 21:58:54+00:00,2018-02-02 21:20:48+00:00,,Sustained,25,0,530,Correct Rejection,0,1,N/A
ADMIN-UCSF-BK010,2018-01-30 21:58:54+00:00,2018-02-02 21:20:48+00:00,,Impulsive,26,0,400,Correct Rejection,0,1,N/A
ADMIN-UCSF-BK010,2018-01-30 21:58:54+00:00,2018-02-02 21:20:48+00:00,,Sustained,26,431.29193782806396,530,Hit,1,1,0
ADMIN-UCSF-BK010,2018-01-30 21:58:54+00:00,2018-02-02 21:20:48+00:00,,Impulsive,27,0,400,Correct Rejection,0,1,N/A
ADMIN-UCSF-BK010,2018-01-30 21:58:54+00:00,2018-02-02 21:20:48+00:00,,Sustained,27,0,510,Correct Rejection,0,1,N/A
ADMIN-UCSF-BK010,2018-01-30 21:58:54+00:00,2018-02-02 21:20:48+00:00,,Impulsive,28,0,400,Correct Rejection,0,1,N/A
ADMIN-UCSF-BK010,2018-01-30 21:58:54+00:00,2018-02-02 21:20:48+00:00,,Sustained,28,357.1820259094238,510,Hit,1,1,0
ADMIN-UCSF-BK010,2018-01-30 21:58:54+00:00,2018-02-02 21:20:48+00:00,,Impulsive,29,349.0070104598999,400,Hit,1,1,0
ADMIN-UCSF-BK010,2018-01-30 21:58:54+00:00,2018-02-02 21:20:48+00:00,,Sustained,29,395.9749937057495,470,Hit,1,1,0
ADMIN-UCSF-BK010,2018-01-30 21:58:54+00:00,2018-02-02 21:20:48+00:00,,Impulsive,30,563.8240575790405,390,Miss,1,0,0
ADMIN-UCSF-BK010,2018-01-30 21:58:54+00:00,2018-02-02 21:20:48+00:00,,Sustained,30,0,390,Correct Rejection,0,1,N/A
ADMIN-UCSF-BK010,2018-01-30 21:58:54+00:00,2018-02-02 21:20:48+00:00,,Impulsive,31,0,430,Correct Rejection,0,1,N/A
ADMIN-UCSF-BK010,2018-01-30 21:58:54+00:00,2018-02-02 21:20:48+00:00,,Sustained,31,365.1149272918701,390,Hit,1,1,0
ADMIN-UCSF-BK010,2018-01-30 21:58:54+00:00,2018-02-02 21:20:48+00:00,,Impulsive,32,487.56706714630127,430,Miss,1,0,0
ADMIN-UCSF-BK010,2018-01-30 21:58:54+00:00,2018-02-02 21:20:48+00:00,,Sustained,32,463.9838933944702,230,Miss,1,0,0
ADMIN-UCSF-BK010,2018-01-30 21:58:54+00:00,2018-02-02 21:20:48+00:00,,Impulsive,33,0,470,Correct Rejection,0,1,N/A
ADMIN-UCSF-BK010,2018-01-30 21:58:54+00:00,2018-02-02 21:20:48+00:00,,Sustained,33,380.85997104644775,270,Miss,1,0,0
ADMIN-UCSF-BK010,2018-01-30 21:58:54+00:00,2018-02-02 21:20:48+00:00,,Impulsive,34,0,470,Correct Rejection,0,1,N/A
ADMIN-UCSF-BK010,2018-01-30 21:58:54+00:00,2018-02-02 21:20:48+00:00,,Sustained,34,399.8509645462036,310,Miss,1,0,0
ADMIN-UCSF-BK010,2018-01-30 21:58:54+00:00,2018-02-02 21:20:48+00:00,,Impulsive,35,0,470,Correct Rejection,0,1,N/A
ADMIN-UCSF-BK010,2018-01-30 21:58:54+00:00,2018-02-02 21:20:48+00:00,,Sustained,35,0,390,Correct Rejection,0,1,N/A
ADMIN-UCSF-BK010,2018-01-30 21:58:54+00:00,2018-02-02 21:20:48+00:00,,Impulsive,36,0,470,Correct Rejection,0,1,N/A
ADMIN-UCSF-BK010,2018-01-30 21:58:54+00:00,2018-02-02 21:20:48+00:00,,Sustained,36,436.4279508590698,390,Miss,1,0,0
ADMIN-UCSF-BK010,2018-01-30 21:58:54+00:00,2018-02-02 21:20:48+00:00,,Impulsive,37,0,470,Correct Rejection,0,1,N/A
ADMIN-UCSF-BK010,2018-01-30 21:58:54+00:00,2018-02-02 21:20:48+00:00,,Sustained,37,413.0589962005615,430,Hit,1,1,0
ADMIN-UCSF-BK010,2018-01-30 21:58:54+00:00,2018-02-02 21:20:48+00:00,,Impulsive,38,0,470,Correct Rejection,0,1,N/A
ADMIN-UCSF-BK010,2018-01-30 21:58:54+00:00,2018-02-02 21:20:48+00:00,,Sustained,38,551.4661073684692,420,Miss,1,0,0
ADMIN-UCSF-BK010,2018-01-30 21:58:54+00:00,2018-02-02 21:20:48+00:00,,Impulsive,39,0,470,Correct Rejection,0,1,N/A
ADMIN-UCSF-BK010,2018-01-30 21:58:54+00:00,2018-02-02 21:20:48+00:00,,Sustained,39,0,460,Correct Rejection,0,1,N/A
ADMIN-UCSF-BK009,2018-02-02 20:46:57+00:00,2018-02-08 17:29:42+00:00,,Impulsive,0,0,600,Correct Rejection,0,1,N/A
ADMIN-UCSF-BK009,2018-02-02 20:46:57+00:00,2018-02-08 17:29:42+00:00,,Sustained,0,352.08404064178467,600,Hit,1,1,0
ADMIN-UCSF-BK009,2018-02-02 20:46:57+00:00,2018-02-08 17:29:42+00:00,,Impulsive,1,0,600,Correct Rejection,0,1,N/A
ADMIN-UCSF-BK009,2018-02-02 20:46:57+00:00,2018-02-08 17:29:42+00:00,,Sustained,1,437.2760057449341,590,Hit,1,1,0
ADMIN-UCSF-BK009,2018-02-02 20:46:57+00:00,2018-02-08 17:29:42+00:00,,Impulsive,2,0,600,Correct Rejection,0,1,N/A
ADMIN-UCSF-BK009,2018-02-02 20:46:57+00:00,2018-02-08 17:29:42+00:00,,Sustained,2,411.8739366531372,580,Hit,1,1,0
ADMIN-UCSF-BK009,2018-02-02 20:46:57+00:00,2018-02-08 17:29:42+00:00,,Impulsive,3,0,600,Correct Rejection,0,1,N/A
ADMIN-UCSF-BK009,2018-02-02 20:46:57+00:00,2018-02-08 17:29:42+00:00,,Sustained,3,403.2829999923706,560,Hit,1,1,0
ADMIN-UCSF-BK009,2018-02-02 20:46:57+00:00,2018-02-08 17:29:42+00:00,,Impulsive,4,0,600,Correct Rejection,0,1,N/A
ADMIN-UCSF-BK009,2018-02-02 20:46:57+00:00,2018-02-08 17:29:42+00:00,,Sustained,4,417.39797592163086,520,Hit,1,1,0
ADMIN-UCSF-BK009,2018-02-02 20:46:57+00:00,2018-02-08 17:29:42+00:00,,Impulsive,5,384.64999198913574,600,Hit,1,1,0
ADMIN-UCSF-BK009,2018-02-02 20:46:57+00:00,2018-02-08 17:29:42+00:00,,Sustained,5,568.073034286499,440,Miss,1,0,0
ADMIN-UCSF-BK009,2018-02-02 20:46:57+00:00,2018-02-08 17:29:42+00:00,,Impulsive,6,436.28108501434326,590,Hit,1,1,0
ADMIN-UCSF-BK009,2018-02-02 20:46:57+00:00,2018-02-08 17:29:42+00:00,,Sustained,6,N/A,480,Miss,1,0,1
ADMIN-UCSF-BK009,2018-02-02 20:46:57+00:00,2018-02-08 17:29:42+00:00,,Impulsive,7,316.133975982666,580,Hit,1,1,0
ADMIN-UCSF-BK009,2018-02-02 20:46:57+00:00,2018-02-08 17:29:42+00:00,,Sustained,7,317.21198558807373,520,Hit,1,1,0
ADMIN-UCSF-BK009,2018-02-02 20:46:57+00:00,2018-02-08 17:29:42+00:00,,Impulsive,8,0,560,Correct Rejection,0,1,N/A
ADMIN-UCSF-BK009,2018-02-02 20:46:57+00:00,2018-02-08 17:29:42+00:00,,Sustained,8,0,510,Correct Rejection,0,1,N/A
ADMIN-UCSF-BK009,2018-02-02 20:46:57+00:00,2018-02-08 17:29:42+00:00,,Impulsive,9,0,560,Correct Rejection,0,1,N/A
ADMIN-UCSF-BK009,2018-02-02 20:46:57+00:00,2018-02-08 17:29:42+00:00,,Sustained,9,0,510,Correct Rejection,0,1,N/A
ADMIN-UCSF-BK009,2018-02-02 20:46:57+00:00,2018-02-08 17:29:42+00:00,,Impulsive,10,0,560,Correct Rejection,0,1,N/A
ADMIN-UCSF-BK009,2018-02-02 20:46:57+00:00,2018-02-08 17:29:42+00:00,,Sustained,10,526.5918970108032,510,Miss,1,0,0
ADMIN-UCSF-BK009,2018-02-02 20:46:57+00:00,2018-02-08 17:29:42+00:00,,Impulsive,11,440.2250051498413,560,Hit,1,1,0
ADMIN-UCSF-BK009,2018-02-02 20:46:57+00:00,2018-02-08 17:29:42+00:00,,Sustained,11,N/A,550,Miss,1,0,1
ADMIN-UCSF-BK009,2018-02-02 20:46:57+00:00,2018-02-08 17:29:42+00:00,,Impulsive,12,506.16395473480225,520,Hit,1,1,0
ADMIN-UCSF-BK009,2018-02-02 20:46:57+00:00,2018-02-08 17:29:42+00:00,,Sustained,12,N/A,590,Miss,1,0,1
ADMIN-UCSF-BK009,2018-02-02 20:46:57+00:00,2018-02-08 17:29:42+00:00,,Impulsive,13,0,440,Correct Rejection,0,1,N/A
ADMIN-UCSF-BK009,2018-02-02 20:46:57+00:00,2018-02-08 17:29:42+00:00,,Sustained,13,391.45493507385254,670,Hit,1,1,0
ADMIN-UCSF-BK009,2018-02-02 20:46:57+00:00,2018-02-08 17:29:42+00:00,,Impulsive,14,0,440,Correct Rejection,0,1,N/A
ADMIN-UCSF-BK009,2018-02-02 20:46:57+00:00,2018-02-08 17:29:42+00:00,,Sustained,14,0,660,Correct Rejection,0,1,N/A
ADMIN-UCSF-BK009,2018-02-02 20:46:57+00:00,2018-02-08 17:29:42+00:00,,Impulsive,15,0,440,Correct Rejection,0,1,N/A
ADMIN-UCSF-BK009,2018-02-02 20:46:57+00:00,2018-02-08 17:29:42+00:00,,Sustained,15,0,660,Correct Rejection,0,1,N/A
ADMIN-UCSF-BK009,2018-02-02 20:46:57+00:00,2018-02-08 17:29:42+00:00,,Impulsive,16,0,440,Correct Rejection,0,1,N/A
ADMIN-UCSF-BK009,2018-02-02 20:46:57+00:00,2018-02-08 17:29:42+00:00,,Sustained,16,0,660,Correct Rejection,0,1,N/A
ADMIN-UCSF-BK009,2018-02-02 20:46:57+00:00,2018-02-08 17:29:42+00:00,,Impulsive,17,0,440,Correct Rejection,0,1,N/A
ADMIN-UCSF-BK009,2018-02-02 20:46:57+00:00,2018-02-08 17:29:42+00:00,,Sustained,17,N/A,660,Miss,1,0,1
ADMIN-UCSF-BK009,2018-02-02 20:46:57+00:00,2018-02-08 17:29:42+00:00,,Impulsive,18,0,440,Correct Rejection,0,1,N/A
ADMIN-UCSF-BK009,2018-02-02 20:46:57+00:00,2018-02-08 17:29:42+00:00,,Sustained,18,0,700,Correct Rejection,0,1,N/A
ADMIN-UCSF-BK009,2018-02-02 20:46:57+00:00,2018-02-08 17:29:42+00:00,,Impulsive,19,0,440,Correct Rejection,0,1,N/A
ADMIN-UCSF-BK009,2018-02-02 20:46:57+00:00,2018-02-08 17:29:42+00:00,,Sustained,19,0,700,Correct Rejection,0,1,N/A
ADMIN-UCSF-BK009,2018-02-02 20:46:57+00:00,2018-02-08 17:29:42+00:00,,Impulsive,20,0,440,Correct Rejection,0,1,N/A
ADMIN-UCSF-BK009,2018-02-02 20:46:57+00:00,2018-02-08 17:29:42+00:00,,Sustained,20,347.2939729690552,700,Hit,1,1,0
ADMIN-UCSF-BK009,2018-02-02 20:46:57+00:00,2018-02-08 17:29:42+00:00,,Impulsive,21,0,440,Correct Rejection,0,1,N/A
ADMIN-UCSF-BK009,2018-02-02 20:46:57+00:00,2018-02-08 17:29:42+00:00,,Sustained,21,655.4349660873413,690,Hit,1,1,0
ADMIN-UCSF-BK009,2018-02-02 20:46:57+00:00,2018-02-08 17:29:42+00:00,,Impulsive,22,0,440,Correct Rejection,0,1,N/A
ADMIN-UCSF-BK009,2018-02-02 20:46:57+00:00,2018-02-08 17:29:42+00:00,,Sustained,22,N/A,680,Miss,1,0,1
ADMIN-UCSF-BK009,2018-02-02 20:46:57+00:00,2018-02-08 17:29:42+00:00,,Impulsive,23,0,440,Correct Rejection,0,1,N/A
ADMIN-UCSF-BK009,2018-02-02 20:46:57+00:00,2018-02-08 17:29:42+00:00,,Sustained,23,0,720,Correct Rejection,0,1,N/A
ADMIN-UCSF-BK009,2018-02-02 20:46:57+00:00,2018-02-08 17:29:42+00:00,,Impulsive,24,0,440,Correct Rejection,0,1,N/A
ADMIN-UCSF-BK009,2018-02-02 20:46:57+00:00,2018-02-08 17:29:42+00:00,,Sustained,24,292.5000190734863,720,Hit,1,1,0
ADMIN-UCSF-BK009,2018-02-02 20:46:57+00:00,2018-02-08 17:29:42+00:00,,Impulsive,25,428.44998836517334,440,Hit,1,1,0
ADMIN-UCSF-BK009,2018-02-02 20:46:57+00:00,2018-02-08 17:29:42+00:00,,Sustained,25,389.4989490509033,710,Hit,1,1,0
ADMIN-UCSF-BK009,2018-02-02 20:46:57+00:00,2018-02-08 17:29:42+00:00,,Impulsive,26,0,280,Correct Rejection,0,1,N/A
ADMIN-UCSF-BK009,2018-02-02 20:46:57+00:00,2018-02-08 17:29:42+00:00,,Sustained,26,408.75697135925293,700,Hit,1,1,0
ADMIN-UCSF-BK009,2018-02-02 20:46:57+00:00,2018-02-08 17:29:42+00:00,,Impulsive,27,0,280,Correct Rejection,0,1,N/A
ADMIN-UCSF-BK009,2018-02-02 20:46:57+00:00,2018-02-08 17:29:42+00:00,,Sustained,27,N/A,680,Miss,1,0,1
ADMIN-UCSF-BK009,2018-02-02 20:46:57+00:00,2018-02-08 17:29:42+00:00,,Impulsive,28,432.217001914978,280,Miss,1,0,0
ADMIN-UCSF-BK009,2018-02-02 20:46:57+00:00,2018-02-08 17:29:42+00:00,,Sustained,28,0,720,Correct Rejection,0,1,N/A
ADMIN-UCSF-BK009,2018-02-02 20:46:57+00:00,2018-02-08 17:29:42+00:00,,Impulsive,29,491.9619560241699,320,Miss,1,0,0
ADMIN-UCSF-BK009,2018-02-02 20:46:57+00:00,2018-02-08 17:29:42+00:00,,Sustained,29,598.607063293457,720,Hit,1,1,0
ADMIN-UCSF-BK009,2018-02-02 20:46:57+00:00,2018-02-08 17:29:42+00:00,,Impulsive,30,355.118989944458,360,Hit,1,1,0
ADMIN-UCSF-BK009,2018-02-02 20:46:57+00:00,2018-02-08 17:29:42+00:00,,Sustained,30,0,710,Correct Rejection,0,1,N/A
ADMIN-UCSF-BK009,2018-02-02 20:46:57+00:00,2018-02-08 17:29:42+00:00,,Impulsive,31,0,350,Correct Rejection,0,1,N/A
ADMIN-UCSF-BK009,2018-02-02 20:46:57+00:00,2018-02-08 17:29:42+00:00,,Sustained,31,446.60496711730957,710,Hit,1,1,0
ADMIN-UCSF-BK009,2018-02-02 20:46:57+00:00,2018-02-08 17:29:42+00:00,,Impulsive,32,0,350,Correct Rejection,0,1,N/A
ADMIN-UCSF-BK009,2018-02-02 20:46:57+00:00,2018-02-08 17:29:42+00:00,,Sustained,32,0,700,Correct Rejection,0,1,N/A
ADMIN-UCSF-BK009,2018-02-02 20:46:57+00:00,2018-02-08 17:29:42+00:00,,Impulsive,33,0,350,Correct Rejection,0,1,N/A
ADMIN-UCSF-BK009,2018-02-02 20:46:57+00:00,2018-02-08 17:29:42+00:00,,Sustained,33,420.8160638809204,700,Hit,1,1,0
ADMIN-UCSF-BK009,2018-02-02 20:46:57+00:00,2018-02-08 17:29:42+00:00,,Impulsive,34,545.5520153045654,350,Miss,1,0,0
ADMIN-UCSF-BK009,2018-02-02 20:46:57+00:00,2018-02-08 17:29:42+00:00,,Sustained,34,0,680,Correct Rejection,0,1,N/A
ADMIN-UCSF-BK009,2018-02-02 20:46:57+00:00,2018-02-08 17:29:42+00:00,,Impulsive,35,0,390,Correct Rejection,0,1,N/A
ADMIN-UCSF-BK009,2018-02-02 20:46:57+00:00,2018-02-08 17:29:42+00:00,,Sustained,35,255.09703159332275,680,Hit,1,1,0
ADMIN-UCSF-BK009,2018-02-02 20:46:57+00:00,2018-02-08 17:29:42+00:00,,Impulsive,36,N/A,390,Miss,1,0,1
ADMIN-UCSF-BK009,2018-02-02 20:46:57+00:00,2018-02-08 17:29:42+00:00,,Sustained,36,696.0209608078003,640,Miss,1,0,0
ADMIN-UCSF-BK009,2018-02-02 20:46:57+00:00,2018-02-08 17:29:42+00:00,,Impulsive,37,551.630973815918,430,Miss,1,0,0
ADMIN-UCSF-BK009,2018-02-02 20:46:57+00:00,2018-02-08 17:29:42+00:00,,Sustained,37,426.02694034576416,680,Hit,1,1,0
ADMIN-UCSF-BK009,2018-02-02 20:46:57+00:00,2018-02-08 17:29:42+00:00,,Impulsive,38,0,470,Correct Rejection,0,1,N/A
ADMIN-UCSF-BK009,2018-02-02 20:46:57+00:00,2018-02-08 17:29:42+00:00,,Sustained,38,383.87298583984375,670,Hit,1,1,0
ADMIN-UCSF-BK009,2018-02-02 20:46:57+00:00,2018-02-08 17:29:42+00:00,,Impulsive,39,0,470,Correct Rejection,0,1,N/A
ADMIN-UCSF-BK009,2018-02-02 20:46:57+00:00,2018-02-08 17:29:42+00:00,,Sustained,39,503.1929016113281,660,Hit,1,1,0
ADMIN-UCSF-BK014,2018-02-02 21:56:41+00:00,2018-02-08 17:29:42+00:00,,Impulsive,0,0,600,Correct Rejection,0,1,N/A
ADMIN-UCSF-BK014,2018-02-02 21:56:41+00:00,2018-02-08 17:29:42+00:00,,Sustained,0,380.7640075683594,600,Hit,1,1,0
ADMIN-UCSF-BK014,2018-02-02 21:56:41+00:00,2018-02-08 17:29:42+00:00,,Impulsive,1,0,600,Correct Rejection,0,1,N/A
ADMIN-UCSF-BK014,2018-02-02 21:56:41+00:00,2018-02-08 17:29:42+00:00,,Sustained,1,0,590,Correct Rejection,0,1,N/A
ADMIN-UCSF-BK014,2018-02-02 21:56:41+00:00,2018-02-08 17:29:42+00:00,,Impulsive,2,0,600,Correct Rejection,0,1,N/A
ADMIN-UCSF-BK014,2018-02-02 21:56:41+00:00,2018-02-08 17:29:42+00:00,,Sustained,2,N/A,590,Miss,1,0,1
ADMIN-UCSF-BK014,2018-02-02 21:56:41+00:00,2018-02-08 17:29:42+00:00,,Impulsive,3,0,600,Correct Rejection,0,1,N/A
ADMIN-UCSF-BK014,2018-02-02 21:56:41+00:00,2018-02-08 17:29:42+00:00,,Sustained,3,546.2449789047241,630,Hit,1,1,0
ADMIN-UCSF-BK014,2018-02-02 21:56:41+00:00,2018-02-08 17:29:42+00:00,,Impulsive,4,0,600,Correct Rejection,0,1,N/A
ADMIN-UCSF-BK014,2018-02-02 21:56:41+00:00,2018-02-08 17:29:42+00:00,,Sustained,4,339.70093727111816,620,Hit,1,1,0
ADMIN-UCSF-BK014,2018-02-02 21:56:41+00:00,2018-02-08 17:29:42+00:00,,Impulsive,5,0,600,Correct Rejection,0,1,N/A
ADMIN-UCSF-BK014,2018-02-02 21:56:41+00:00,2018-02-08 17:29:42+00:00,,Sustained,5,0,610,Correct Rejection,0,1,N/A
ADMIN-UCSF-BK014,2018-02-02 21:56:41+00:00,2018-02-08 17:29:42+00:00,,Impulsive,6,527.8629064559937,600,Hit,1,1,0
ADMIN-UCSF-BK014,2018-02-02 21:56:41+00:00,2018-02-08 17:29:42+00:00,,Sustained,6,558.9070320129395,610,Hit,1,1,0
ADMIN-UCSF-BK014,2018-02-02 21:56:41+00:00,2018-02-08 17:29:42+00:00,,Impulsive,7,0,590,Correct Rejection,0,1,N/A
ADMIN-UCSF-BK014,2018-02-02 21:56:41+00:00,2018-02-08 17:29:42+00:00,,Sustained,7,366.36507511138916,590,Hit,1,1,0
ADMIN-UCSF-BK014,2018-02-02 21:56:41+00:00,2018-02-08 17:29:42+00:00,,Impulsive,8,0,590,Correct Rejection,0,1,N/A
ADMIN-UCSF-BK014,2018-02-02 21:56:41+00:00,2018-02-08 17:29:42+00:00,,Sustained,8,0,550,Correct Rejection,0,1,N/A
ADMIN-UCSF-BK014,2018-02-02 21:56:41+00:00,2018-02-08 17:29:42+00:00,,Impulsive,9,0,590,Correct Rejection,0,1,N/A
ADMIN-UCSF-BK014,2018-02-02 21:56:41+00:00,2018-02-08 17:29:42+00:00,,Sustained,9,507.42602348327637,550,False Alarm,0,0,N/A
ADMIN-UCSF-BK014,2018-02-02 21:56:41+00:00,2018-02-08 17:29:42+00:00,,Impulsive,10,0,590,Correct Rejection,0,1,N/A
ADMIN-UCSF-BK014,2018-02-02 21:56:41+00:00,2018-02-08 17:29:42+00:00,,Sustained,10,0,590,Correct Rejection,0,1,N/A
ADMIN-UCSF-BK014,2018-02-02 21:56:41+00:00,2018-02-08 17:29:42+00:00,,Impulsive,11,0,590,Correct Rejection,0,1,N/A
ADMIN-UCSF-BK014,2018-02-02 21:56:41+00:00,2018-02-08 17:29:42+00:00,,Sustained,11,349.39098358154297,590,Hit,1,1,0
ADMIN-UCSF-BK014,2018-02-02 21:56:41+00:00,2018-02-08 17:29:42+00:00,,Impulsive,12,409.9239110946655,590,Hit,1,1,0
ADMIN-UCSF-BK014,2018-02-02 21:56:41+00:00,2018-02-08 17:29:42+00:00,,Sustained,12,N/A,580,Miss,1,0,1
ADMIN-UCSF-BK014,2018-02-02 21:56:41+00:00,2018-02-08 17:29:42+00:00,,Impulsive,13,475.28696060180664,580,Hit,1,1,0
ADMIN-UCSF-BK014,2018-02-02 21:56:41+00:00,2018-02-08 17:29:42+00:00,,Sustained,13,424.7850179672241,620,Hit,1,1,0
ADMIN-UCSF-BK014,2018-02-02 21:56:41+00:00,2018-02-08 17:29:42+00:00,,Impulsive,14,0,560,Correct Rejection,0,1,N/A
ADMIN-UCSF-BK014,2018-02-02 21:56:41+00:00,2018-02-08 17:29:42+00:00,,Sustained,14,413.6420488357544,610,Hit,1,1,0
ADMIN-UCSF-BK014,2018-02-02 21:56:41+00:00,2018-02-08 17:29:42+00:00,,Impulsive,15,0,560,Correct Rejection,0,1,N/A
ADMIN-UCSF-BK014,2018-02-02 21:56:41+00:00,2018-02-08 17:29:42+00:00,,Sustained,15,421.21708393096924,600,Hit,1,1,0
ADMIN-UCSF-BK014,2018-02-02 21:56:41+00:00,2018-02-08 17:29:42+00:00,,Impulsive,16,0,560,Correct Rejection,0,1,N/A
ADMIN-UCSF-BK014,2018-02-02 21:56:41+00:00,2018-02-08 17:29:42+00:00,,Sustained,16,0,580,Correct Rejection,0,1,N/A
ADMIN-UCSF-BK014,2018-02-02 21:56:41+00:00,2018-02-08 17:29:42+00:00,,Impulsive,17,0,560,Correct Rejection,0,1,N/A
ADMIN-UCSF-BK014,2018-02-02 21:56:41+00:00,2018-02-08 17:29:42+00:00,,Sustained,17,458.2669734954834,580,Hit,1,1,0
ADMIN-UCSF-BK014,2018-02-02 21:56:41+00:00,2018-02-08 17:29:42+00:00,,Impulsive,18,426.8169403076172,560,Hit,1,1,0
ADMIN-UCSF-BK014,2018-02-02 21:56:41+00:00,2018-02-08 17:29:42+00:00,,Sustained,18,362.496018409729,540,Hit,1,1,0
ADMIN-UCSF-BK014,2018-02-02 21:56:41+00:00,2018-02-08 17:29:42+00:00,,Impulsive,19,N/A,520,Miss,1,0,1
ADMIN-UCSF-BK014,2018-02-02 21:56:41+00:00,2018-02-08 17:29:42+00:00,,Sustained,19,0,460,Correct Rejection,0,1,N/A
ADMIN-UCSF-BK014,2018-02-02 21:56:41+00:00,2018-02-08 17:29:42+00:00,,Impulsive,20,383.823037147522,560,Hit,1,1,0
ADMIN-UCSF-BK014,2018-02-02 21:56:41+00:00,2018-02-08 17:29:42+00:00,,Sustained,20,270.45392990112305,460,Hit,1,1,0
ADMIN-UCSF-BK014,2018-02-02 21:56:41+00:00,2018-02-08 17:29:42+00:00,,Impulsive,21,0,550,Correct Rejection,0,1,N/A
ADMIN-UCSF-BK014,2018-02-02 21:56:41+00:00,2018-02-08 17:29:42+00:00,,Sustained,21,398.28693866729736,300,Miss,1,0,0
ADMIN-UCSF-BK014,2018-02-02 21:56:41+00:00,2018-02-08 17:29:42+00:00,,Impulsive,22,0,550,Correct Rejection,0,1,N/A
ADMIN-UCSF-BK014,2018-02-02 21:56:41+00:00,2018-02-08 17:29:42+00:00,,Sustained,22,0,340,Correct Rejection,0,1,N/A
ADMIN-UCSF-BK014,2018-02-02 21:56:41+00:00,2018-02-08 17:29:42+00:00,,Impulsive,23,0,550,Correct Rejection,0,1,N/A
ADMIN-UCSF-BK014,2018-02-02 21:56:41+00:00,2018-02-08 17:29:42+00:00,,Sustained,23,513.0720138549805,340,Miss,1,0,0
ADMIN-UCSF-BK014,2018-02-02 21:56:41+00:00,2018-02-08 17:29:42+00:00,,Impulsive,24,322.04699516296387,550,Hit,1,1,0
ADMIN-UCSF-BK014,2018-02-02 21:56:41+00:00,2018-02-08 17:29:42+00:00,,Sustained,24,425.47595500946045,380,Miss,1,0,0
ADMIN-UCSF-BK014,2018-02-02 21:56:41+00:00,2018-02-08 17:29:42+00:00,,Impulsive,25,398.5530138015747,540,Hit,1,1,0
ADMIN-UCSF-BK014,2018-02-02 21:56:41+00:00,2018-02-08 17:29:42+00:00,,Sustained,25,567.734956741333,420,Miss,1,0,0
ADMIN-UCSF-BK014,2018-02-02 21:56:41+00:00,2018-02-08 17:29:42+00:00,,Impulsive,26,0,520,Correct Rejection,0,1,N/A
ADMIN-UCSF-BK014,2018-02-02 21:56:41+00:00,2018-02-08 17:29:42+00:00,,Sustained,26,334.1909646987915,500,Hit,1,1,0
ADMIN-UCSF-BK014,2018-02-02 21:56:41+00:00,2018-02-08 17:29:42+00:00,,Impulsive,27,0,520,Correct Rejection,0,1,N/A
ADMIN-UCSF-BK014,2018-02-02 21:56:41+00:00,2018-02-08 17:29:42+00:00,,Sustained,27,0,490,Correct Rejection,0,1,N/A
ADMIN-UCSF-BK014,2018-02-02 21:56:41+00:00,2018-02-08 17:29:42+00:00,,Impulsive,28,0,520,Correct Rejection,0,1,N/A
ADMIN-UCSF-BK014,2018-02-02 21:56:41+00:00,2018-02-08 17:29:42+00:00,,Sustained,28,0,490,Correct Rejection,0,1,N/A
ADMIN-UCSF-BK014,2018-02-02 21:56:41+00:00,2018-02-08 17:29:42+00:00,,Impulsive,29,0,520,Correct Rejection,0,1,N/A
ADMIN-UCSF-BK014,2018-02-02 21:56:41+00:00,2018-02-08 17:29:42+00:00,,Sustained,29,327.0680904388428,490,Hit,1,1,0
ADMIN-UCSF-BK014,2018-02-02 21:56:41+00:00,2018-02-08 17:29:42+00:00,,Impulsive,30,0,520,Correct Rejection,0,1,N/A
ADMIN-UCSF-BK014,2018-02-02 21:56:41+00:00,2018-02-08 17:29:42+00:00,,Sustained,30,468.33503246307373,480,Hit,1,1,0
ADMIN-UCSF-BK014,2018-02-02 21:56:41+00:00,2018-02-08 17:29:42+00:00,,Impulsive,31,0,520,Correct Rejection,0,1,N/A
ADMIN-UCSF-BK014,2018-02-02 21:56:41+00:00,2018-02-08 17:29:42+00:00,,Sustained,31,442.7049160003662,460,Hit,1,1,0
ADMIN-UCSF-BK014,2018-02-02 21:56:41+00:00,2018-02-08 17:29:42+00:00,,Impulsive,32,559.4789981842041,520,Miss,1,0,0
ADMIN-UCSF-BK014,2018-02-02 21:56:41+00:00,2018-02-08 17:29:42+00:00,,Sustained,32,399.5780944824219,420,Hit,1,1,0
ADMIN-UCSF-BK014,2018-02-02 21:56:41+00:00,2018-02-08 17:29:42+00:00,,Impulsive,33,0,560,Correct Rejection,0,1,N/A
ADMIN-UCSF-BK014,2018-02-02 21:56:41+00:00,2018-02-08 17:29:42+00:00,,Sustained,33,418.052077293396,340,Miss,1,0,0
ADMIN-UCSF-BK014,2018-02-02 21:56:41+00:00,2018-02-08 17:29:42+00:00,,Impulsive,34,0,560,Correct Rejection,0,1,N/A
ADMIN-UCSF-BK014,2018-02-02 21:56:41+00:00,2018-02-08 17:29:42+00:00,,Sustained,34,376.68299674987793,380,Hit,1,1,0
ADMIN-UCSF-BK014,2018-02-02 21:56:41+00:00,2018-02-08 17:29:42+00:00,,Impulsive,35,0,560,Correct Rejection,0,1,N/A
ADMIN-UCSF-BK014,2018-02-02 21:56:41+00:00,2018-02-08 17:29:42+00:00,,Sustained,35,367.66505241394043,370,Hit,1,1,0
ADMIN-UCSF-BK014,2018-02-02 21:56:41+00:00,2018-02-08 17:29:42+00:00,,Impulsive,36,0,560,Correct Rejection,0,1,N/A
ADMIN-UCSF-BK014,2018-02-02 21:56:41+00:00,2018-02-08 17:29:42+00:00,,Sustained,36,0,360,Correct Rejection,0,1,N/A
ADMIN-UCSF-BK014,2018-02-02 21:56:41+00:00,2018-02-08 17:29:42+00:00,,Impulsive,37,425.81403255462646,560,Hit,1,1,0
ADMIN-UCSF-BK014,2018-02-02 21:56:41+00:00,2018-02-08 17:29:42+00:00,,Sustained,37,503.15892696380615,360,Miss,1,0,0
ADMIN-UCSF-BK014,2018-02-02 21:56:41+00:00,2018-02-08 17:29:42+00:00,,Impulsive,38,531.4569473266602,550,Hit,1,1,0
ADMIN-UCSF-BK014,2018-02-02 21:56:41+00:00,2018-02-08 17:29:42+00:00,,Sustained,38,401.265025138855,400,Miss,1,0,0
ADMIN-UCSF-BK014,2018-02-02 21:56:41+00:00,2018-02-08 17:29:42+00:00,,Impulsive,39,398.7170457839966,540,Hit,1,1,0
ADMIN-UCSF-BK014,2018-02-02 21:56:41+00:00,2018-02-08 17:29:42+00:00,,Sustained,39,0,440,Correct Rejection,0,1,N/A
ADMIN-UCSF-BK012,2018-02-02 22:18:58+00:00,2018-02-08 17:29:42+00:00,,Impulsive,0,0,600,Correct Rejection,0,1,N/A
ADMIN-UCSF-BK012,2018-02-02 22:18:58+00:00,2018-02-08 17:29:42+00:00,,Sustained,0,N/A,600,Miss,1,0,1
ADMIN-UCSF-BK012,2018-02-02 22:18:58+00:00,2018-02-08 17:29:42+00:00,,Impulsive,1,0,600,Correct Rejection,0,1,N/A
ADMIN-UCSF-BK012,2018-02-02 22:18:58+00:00,2018-02-08 17:29:42+00:00,,Sustained,1,279.1479825973511,640,Hit,1,1,0
ADMIN-UCSF-BK012,2018-02-02 22:18:58+00:00,2018-02-08 17:29:42+00:00,,Impulsive,2,0,600,Correct Rejection,0,1,N/A
ADMIN-UCSF-BK012,2018-02-02 22:18:58+00:00,2018-02-08 17:29:42+00:00,,Sustained,2,351.436972618103,630,Hit,1,1,0
ADMIN-UCSF-BK012,2018-02-02 22:18:58+00:00,2018-02-08 17:29:42+00:00,,Impulsive,3,0,600,Correct Rejection,0,1,N/A
ADMIN-UCSF-BK012,2018-02-02 22:18:58+00:00,2018-02-08 17:29:42+00:00,,Sustained,3,0,620,Correct Rejection,0,1,N/A
ADMIN-UCSF-BK012,2018-02-02 22:18:58+00:00,2018-02-08 17:29:42+00:00,,Impulsive,4,0,600,Correct Rejection,0,1,N/A
ADMIN-UCSF-BK012,2018-02-02 22:18:58+00:00,2018-02-08 17:29:42+00:00,,Sustained,4,0,620,Correct Rejection,0,1,N/A
ADMIN-UCSF-BK012,2018-02-02 22:18:58+00:00,2018-02-08 17:29:42+00:00,,Impulsive,5,0,600,Correct Rejection,0,1,N/A
ADMIN-UCSF-BK012,2018-02-02 22:18:58+00:00,2018-02-08 17:29:42+00:00,,Sustained,5,356.99594020843506,620,Hit,1,1,0
ADMIN-UCSF-BK012,2018-02-02 22:18:58+00:00,2018-02-08 17:29:42+00:00,,Impulsive,6,0,600,Correct Rejection,0,1,N/A
ADMIN-UCSF-BK012,2018-02-02 22:18:58+00:00,2018-02-08 17:29:42+00:00,,Sustained,6,0,600,Correct Rejection,0,1,N/A
ADMIN-UCSF-BK012,2018-02-02 22:18:58+00:00,2018-02-08 17:29:42+00:00,,Impulsive,7,0,600,Correct Rejection,0,1,N/A
ADMIN-UCSF-BK012,2018-02-02 22:18:58+00:00,2018-02-08 17:29:42+00:00,,Sustained,7,402.6089906692505,600,Hit,1,1,0
ADMIN-UCSF-BK012,2018-02-02 22:18:58+00:00,2018-02-08 17:29:42+00:00,,Impulsive,8,0,600,Correct Rejection,0,1,N/A
ADMIN-UCSF-BK012,2018-02-02 22:18:58+00:00,2018-02-08 17:29:42+00:00,,Sustained,8,0,560,Correct Rejection,0,1,N/A
ADMIN-UCSF-BK012,2018-02-02 22:18:58+00:00,2018-02-08 17:29:42+00:00,,Impulsive,9,N/A,600,Miss,1,0,1
ADMIN-UCSF-BK012,2018-02-02 22:18:58+00:00,2018-02-08 17:29:42+00:00,,Sustained,9,348.02794456481934,560,Hit,1,1,0
ADMIN-UCSF-BK012,2018-02-02 22:18:58+00:00,2018-02-08 17:29:42+00:00,,Impulsive,10,328.06503772735596,640,Hit,1,1,0
ADMIN-UCSF-BK012,2018-02-02 22:18:58+00:00,2018-02-08 17:29:42+00:00,,Sustained,10,425.15504360198975,480,Hit,1,1,0
ADMIN-UCSF-BK012,2018-02-02 22:18:58+00:00,2018-02-08 17:29:42+00:00,,Impulsive,11,0,630,Correct Rejection,0,1,N/A
ADMIN-UCSF-BK012,2018-02-02 22:18:58+00:00,2018-02-08 17:29:42+00:00,,Sustained,11,359.77089405059814,320,Miss,1,0,0
ADMIN-UCSF-BK012,2018-02-02 22:18:58+00:00,2018-02-08 17:29:42+00:00,,Impulsive,12,366.5670156478882,630,Hit,1,1,0
ADMIN-UCSF-BK012,2018-02-02 22:18:58+00:00,2018-02-08 17:29:42+00:00,,Sustained,12,374.64988231658936,360,Miss,1,0,0
ADMIN-UCSF-BK012,2018-02-02 22:18:58+00:00,2018-02-08 17:29:42+00:00,,Impulsive,13,422.19793796539307,620,False Alarm,0,0,N/A
ADMIN-UCSF-BK012,2018-02-02 22:18:58+00:00,2018-02-08 17:29:42+00:00,,Sustained,13,0,400,Correct Rejection,0,1,N/A
ADMIN-UCSF-BK012,2018-02-02 22:18:58+00:00,2018-02-08 17:29:42+00:00,,Impulsive,14,479.76207733154297,660,Hit,1,1,0
ADMIN-UCSF-BK012,2018-02-02 22:18:58+00:00,2018-02-08 17:29:42+00:00,,Sustained,14,N/A,400,Miss,1,0,1
ADMIN-UCSF-BK012,2018-02-02 22:18:58+00:00,2018-02-08 17:29:42+00:00,,Impulsive,15,0,650,Correct Rejection,0,1,N/A
ADMIN-UCSF-BK012,2018-02-02 22:18:58+00:00,2018-02-08 17:29:42+00:00,,Sustained,15,0,440,Correct Rejection,0,1,N/A
ADMIN-UCSF-BK012,2018-02-02 22:18:58+00:00,2018-02-08 17:29:42+00:00,,Impulsive,16,0,650,Correct Rejection,0,1,N/A
ADMIN-UCSF-BK012,2018-02-02 22:18:58+00:00,2018-02-08 17:29:42+00:00,,Sustained,16,369.9619770050049,440,Hit,1,1,0
ADMIN-UCSF-BK012,2018-02-02 22:18:58+00:00,2018-02-08 17:29:42+00:00,,Impulsive,17,315.19007682800293,650,Hit,1,1,0
ADMIN-UCSF-BK012,2018-02-02 22:18:58+00:00,2018-02-08 17:29:42+00:00,,Sustained,17,0,430,Correct Rejection,0,1,N/A
ADMIN-UCSF-BK012,2018-02-02 22:18:58+00:00,2018-02-08 17:29:42+00:00,,Impulsive,18,484.5820665359497,640,Hit,1,1,0
ADMIN-UCSF-BK012,2018-02-02 22:18:58+00:00,2018-02-08 17:29:42+00:00,,Sustained,18,N/A,430,Miss,1,0,1
ADMIN-UCSF-BK012,2018-02-02 22:18:58+00:00,2018-02-08 17:29:42+00:00,,Impulsive,19,0,620,Correct Rejection,0,1,N/A
ADMIN-UCSF-BK012,2018-02-02 22:18:58+00:00,2018-02-08 17:29:42+00:00,,Sustained,19,548.0539798736572,470,Miss,1,0,0
ADMIN-UCSF-BK012,2018-02-02 22:18:58+00:00,2018-02-08 17:29:42+00:00,,Impulsive,20,345.2489376068115,620,Hit,1,1,0
ADMIN-UCSF-BK012,2018-02-02 22:18:58+00:00,2018-02-08 17:29:42+00:00,,Sustained,20,313.7129545211792,510,Hit,1,1,0
ADMIN-UCSF-BK012,2018-02-02 22:18:58+00:00,2018-02-08 17:29:42+00:00,,Impulsive,21,0,580,Correct Rejection,0,1,N/A
ADMIN-UCSF-BK012,2018-02-02 22:18:58+00:00,2018-02-08 17:29:42+00:00,,Sustained,21,330.67095279693604,500,Hit,1,1,0
ADMIN-UCSF-BK012,2018-02-02 22:18:58+00:00,2018-02-08 17:29:42+00:00,,Impulsive,22,331.03299140930176,580,False Alarm,0,0,N/A
ADMIN-UCSF-BK012,2018-02-02 22:18:58+00:00,2018-02-08 17:29:42+00:00,,Sustained,22,0,490,Correct Rejection,0,1,N/A
ADMIN-UCSF-BK012,2018-02-02 22:18:58+00:00,2018-02-08 17:29:42+00:00,,Impulsive,23,0,620,Correct Rejection,0,1,N/A
ADMIN-UCSF-BK012,2018-02-02 22:18:58+00:00,2018-02-08 17:29:42+00:00,,Sustained,23,410.4050397872925,490,Hit,1,1,0
ADMIN-UCSF-BK012,2018-02-02 22:18:58+00:00,2018-02-08 17:29:42+00:00,,Impulsive,24,0,620,Correct Rejection,0,1,N/A
ADMIN-UCSF-BK012,2018-02-02 22:18:58+00:00,2018-02-08 17:29:42+00:00,,Sustained,24,0,470,Correct Rejection,0,1,N/A
ADMIN-UCSF-BK012,2018-02-02 22:18:58+00:00,2018-02-08 17:29:42+00:00,,Impulsive,25,366.38200283050537,620,Hit,1,1,0
ADMIN-UCSF-BK012,2018-02-02 22:18:58+00:00,2018-02-08 17:29:42+00:00,,Sustained,25,484.3599796295166,470,Miss,1,0,0
ADMIN-UCSF-BK012,2018-02-02 22:18:58+00:00,2018-02-08 17:29:42+00:00,,Impulsive,26,359.5050573348999,610,Hit,1,1,0
ADMIN-UCSF-BK012,2018-02-02 22:18:58+00:00,2018-02-08 17:29:42+00:00,,Sustained,26,446.9810724258423,510,False Alarm,0,0,N/A
ADMIN-UCSF-BK012,2018-02-02 22:18:58+00:00,2018-02-08 17:29:42+00:00,,Impulsive,27,562.9720687866211,600,Hit,1,1,0
ADMIN-UCSF-BK012,2018-02-02 22:18:58+00:00,2018-02-08 17:29:42+00:00,,Sustained,27,507.7749490737915,550,Hit,1,1,0
ADMIN-UCSF-BK012,2018-02-02 22:18:58+00:00,2018-02-08 17:29:42+00:00,,Impulsive,28,0,580,Correct Rejection,0,1,N/A
ADMIN-UCSF-BK012,2018-02-02 22:18:58+00:00,2018-02-08 17:29:42+00:00,,Sustained,28,525.8829593658447,540,Hit,1,1,0
ADMIN-UCSF-BK012,2018-02-02 22:18:58+00:00,2018-02-08 17:29:42+00:00,,Impulsive,29,0,580,Correct Rejection,0,1,N/A
ADMIN-UCSF-BK012,2018-02-02 22:18:58+00:00,2018-02-08 17:29:42+00:00,,Sustained,29,355.4309606552124,530,Hit,1,1,0
ADMIN-UCSF-BK012,2018-02-02 22:18:58+00:00,2018-02-08 17:29:42+00:00,,Impulsive,30,0,580,Correct Rejection,0,1,N/A
ADMIN-UCSF-BK012,2018-02-02 22:18:58+00:00,2018-02-08 17:29:42+00:00,,Sustained,30,388.92900943756104,510,Hit,1,1,0
ADMIN-UCSF-BK012,2018-02-02 22:18:58+00:00,2018-02-08 17:29:42+00:00,,Impulsive,31,0,580,Correct Rejection,0,1,N/A
ADMIN-UCSF-BK012,2018-02-02 22:18:58+00:00,2018-02-08 17:29:42+00:00,,Sustained,31,357.37597942352295,470,Hit,1,1,0
ADMIN-UCSF-BK012,2018-02-02 22:18:58+00:00,2018-02-08 17:29:42+00:00,,Impulsive,32,0,580,Correct Rejection,0,1,N/A
ADMIN-UCSF-BK012,2018-02-02 22:18:58+00:00,2018-02-08 17:29:42+00:00,,Sustained,32,378.6050081253052,390,Hit,1,1,0
ADMIN-UCSF-BK012,2018-02-02 22:18:58+00:00,2018-02-08 17:29:42+00:00,,Impulsive,33,0,580,Correct Rejection,0,1,N/A
ADMIN-UCSF-BK012,2018-02-02 22:18:58+00:00,2018-02-08 17:29:42+00:00,,Sustained,33,322.1099376678467,230,False Alarm,0,0,N/A
ADMIN-UCSF-BK012,2018-02-02 22:18:58+00:00,2018-02-08 17:29:42+00:00,,Impulsive,34,0,580,Correct Rejection,0,1,N/A
ADMIN-UCSF-BK012,2018-02-02 22:18:58+00:00,2018-02-08 17:29:42+00:00,,Sustained,34,394.0260410308838,270,Miss,1,0,0
ADMIN-UCSF-BK012,2018-02-02 22:18:58+00:00,2018-02-08 17:29:42+00:00,,Impulsive,35,482.9709529876709,580,Hit,1,1,0
ADMIN-UCSF-BK012,2018-02-02 22:18:58+00:00,2018-02-08 17:29:42+00:00,,Sustained,35,333.7531089782715,310,Miss,1,0,0
ADMIN-UCSF-BK012,2018-02-02 22:18:58+00:00,2018-02-08 17:29:42+00:00,,Impulsive,36,0,540,Correct Rejection,0,1,N/A
ADMIN-UCSF-BK012,2018-02-02 22:18:58+00:00,2018-02-08 17:29:42+00:00,,Sustained,36,330.38198947906494,390,Hit,1,1,0
ADMIN-UCSF-BK012,2018-02-02 22:18:58+00:00,2018-02-08 17:29:42+00:00,,Impulsive,37,0,540,Correct Rejection,0,1,N/A
ADMIN-UCSF-BK012,2018-02-02 22:18:58+00:00,2018-02-08 17:29:42+00:00,,Sustained,37,436.02001667022705,380,Miss,1,0,0
ADMIN-UCSF-BK012,2018-02-02 22:18:58+00:00,2018-02-08 17:29:42+00:00,,Impulsive,38,0,540,Correct Rejection,0,1,N/A
ADMIN-UCSF-BK012,2018-02-02 22:18:58+00:00,2018-02-08 17:29:42+00:00,,Sustained,38,569.1260099411011,420,Miss,1,0,0
ADMIN-UCSF-BK012,2018-02-02 22:18:58+00:00,2018-02-08 17:29:42+00:00,,Impulsive,39,323.76396656036377,540,Hit,1,1,0
ADMIN-UCSF-BK012,2018-02-02 22:18:58+00:00,2018-02-08 17:29:42+00:00,,Sustained,39,0,460,Correct Rejection,0,1,N/A
ADMIN-UCSF-BK013,2018-02-02 22:44:24+00:00,2018-02-08 17:29:42+00:00,,Impulsive,0,343.42002868652344,600,Hit,1,1,0
ADMIN-UCSF-BK013,2018-02-02 22:44:24+00:00,2018-02-08 17:29:42+00:00,,Sustained,0,400.74706077575684,600,Hit,1,1,0
ADMIN-UCSF-BK013,2018-02-02 22:44:24+00:00,2018-02-08 17:29:42+00:00,,Impulsive,1,0,590,Correct Rejection,0,1,N/A
ADMIN-UCSF-BK013,2018-02-02 22:44:24+00:00,2018-02-08 17:29:42+00:00,,Sustained,1,300.7398843765259,590,Hit,1,1,0
ADMIN-UCSF-BK013,2018-02-02 22:44:24+00:00,2018-02-08 17:29:42+00:00,,Impulsive,2,319.2700147628784,590,Hit,1,1,0
ADMIN-UCSF-BK013,2018-02-02 22:44:24+00:00,2018-02-08 17:29:42+00:00,,Sustained,2,291.8710708618164,580,Hit,1,1,0
ADMIN-UCSF-BK013,2018-02-02 22:44:24+00:00,2018-02-08 17:29:42+00:00,,Impulsive,3,0,580,Correct Rejection,0,1,N/A
ADMIN-UCSF-BK013,2018-02-02 22:44:24+00:00,2018-02-08 17:29:42+00:00,,Sustained,3,0,560,Correct Rejection,0,1,N/A
ADMIN-UCSF-BK013,2018-02-02 22:44:24+00:00,2018-02-08 17:29:42+00:00,,Impulsive,4,303.3161163330078,580,Hit,1,1,0
ADMIN-UCSF-BK013,2018-02-02 22:44:24+00:00,2018-02-08 17:29:42+00:00,,Sustained,4,0,560,Correct Rejection,0,1,N/A
ADMIN-UCSF-BK013,2018-02-02 22:44:24+00:00,2018-02-08 17:29:42+00:00,,Impulsive,5,0,560,Correct Rejection,0,1,N/A
ADMIN-UCSF-BK013,2018-02-02 22:44:24+00:00,2018-02-08 17:29:42+00:00,,Sustained,5,396.29197120666504,560,Hit,1,1,0
ADMIN-UCSF-BK013,2018-02-02 22:44:24+00:00,2018-02-08 17:29:42+00:00,,Impulsive,6,331.03489875793457,560,Hit,1,1,0
ADMIN-UCSF-BK013,2018-02-02 22:44:24+00:00,2018-02-08 17:29:42+00:00,,Sustained,6,355.6619882583618,520,Hit,1,1,0
ADMIN-UCSF-BK013,2018-02-02 22:44:24+00:00,2018-02-08 17:29:42+00:00,,Impulsive,7,0,520,Correct Rejection,0,1,N/A
ADMIN-UCSF-BK013,2018-02-02 22:44:24+00:00,2018-02-08 17:29:42+00:00,,Sustained,7,290.57610034942627,440,Hit,1,1,0
ADMIN-UCSF-BK013,2018-02-02 22:44:24+00:00,2018-02-08 17:29:42+00:00,,Impulsive,8,314.27204608917236,520,Hit,1,1,0
ADMIN-UCSF-BK013,2018-02-02 22:44:24+00:00,2018-02-08 17:29:42+00:00,,Sustained,8,0,280,Correct Rejection,0,1,N/A
ADMIN-UCSF-BK013,2018-02-02 22:44:24+00:00,2018-02-08 17:29:42+00:00,,Impulsive,9,0,440,Correct Rejection,0,1,N/A
ADMIN-UCSF-BK013,2018-02-02 22:44:24+00:00,2018-02-08 17:29:42+00:00,,Sustained,9,0,280,Correct Rejection,0,1,N/A
ADMIN-UCSF-BK013,2018-02-02 22:44:24+00:00,2018-02-08 17:29:42+00:00,,Impulsive,10,328.6559581756592,440,Hit,1,1,0
ADMIN-UCSF-BK013,2018-02-02 22:44:24+00:00,2018-02-08 17:29:42+00:00,,Sustained,10,303.5869598388672,280,Miss,1,0,0
ADMIN-UCSF-BK013,2018-02-02 22:44:24+00:00,2018-02-08 17:29:42+00:00,,Impulsive,11,361.2760305404663,280,Miss,1,0,0
ADMIN-UCSF-BK013,2018-02-02 22:44:24+00:00,2018-02-08 17:29:42+00:00,,Sustained,11,0,320,Correct Rejection,0,1,N/A
ADMIN-UCSF-BK013,2018-02-02 22:44:24+00:00,2018-02-08 17:29:42+00:00,,Impulsive,12,0,320,Correct Rejection,0,1,N/A
ADMIN-UCSF-BK013,2018-02-02 22:44:24+00:00,2018-02-08 17:29:42+00:00,,Sustained,12,0,320,Correct Rejection,0,1,N/A
ADMIN-UCSF-BK013,2018-02-02 22:44:24+00:00,2018-02-08 17:29:42+00:00,,Impulsive,13,0,320,Correct Rejection,0,1,N/A
ADMIN-UCSF-BK013,2018-02-02 22:44:24+00:00,2018-02-08 17:29:42+00:00,,Sustained,13,253.36503982543945,320,Hit,1,1,0
ADMIN-UCSF-BK013,2018-02-02 22:44:24+00:00,2018-02-08 17:29:42+00:00,,Impulsive,14,453.70399951934814,320,Miss,1,0,0
ADMIN-UCSF-BK013,2018-02-02 22:44:24+00:00,2018-02-08 17:29:42+00:00,,Sustained,14,N/A,310,Miss,1,0,1
ADMIN-UCSF-BK013,2018-02-02 22:44:24+00:00,2018-02-08 17:29:42+00:00,,Impulsive,15,0,360,Correct Rejection,0,1,N/A
ADMIN-UCSF-BK013,2018-02-02 22:44:24+00:00,2018-02-08 17:29:42+00:00,,Sustained,15,435.3210926055908,350,Miss,1,0,0
ADMIN-UCSF-BK013,2018-02-02 22:44:24+00:00,2018-02-08 17:29:42+00:00,,Impulsive,16,0,360,Correct Rejection,0,1,N/A
ADMIN-UCSF-BK013,2018-02-02 22:44:24+00:00,2018-02-08 17:29:42+00:00,,Sustained,16,390.9640312194824,390,Miss,1,0,0
ADMIN-UCSF-BK013,2018-02-02 22:44:24+00:00,2018-02-08 17:29:42+00:00,,Impulsive,17,0,360,Correct Rejection,0,1,N/A
ADMIN-UCSF-BK013,2018-02-02 22:44:24+00:00,2018-02-08 17:29:42+00:00,,Sustained,17,318.9229965209961,470,Hit,1,1,0
ADMIN-UCSF-BK013,2018-02-02 22:44:24+00:00,2018-02-08 17:29:42+00:00,,Impulsive,18,0,360,Correct Rejection,0,1,N/A
ADMIN-UCSF-BK013,2018-02-02 22:44:24+00:00,2018-02-08 17:29:42+00:00,,Sustained,18,406.77201747894287,460,Hit,1,1,0
ADMIN-UCSF-BK013,2018-02-02 22:44:24+00:00,2018-02-08 17:29:42+00:00,,Impulsive,19,0,360,Correct Rejection,0,1,N/A
ADMIN-UCSF-BK013,2018-02-02 22:44:24+00:00,2018-02-08 17:29:42+00:00,,Sustained,19,0,450,Correct Rejection,0,1,N/A
ADMIN-UCSF-BK013,2018-02-02 22:44:24+00:00,2018-02-08 17:29:42+00:00,,Impulsive,20,0,360,Correct Rejection,0,1,N/A
ADMIN-UCSF-BK013,2018-02-02 22:44:24+00:00,2018-02-08 17:29:42+00:00,,Sustained,20,0,450,Correct Rejection,0,1,N/A
ADMIN-UCSF-BK013,2018-02-02 22:44:24+00:00,2018-02-08 17:29:42+00:00,,Impulsive,21,0,360,Correct Rejection,0,1,N/A
ADMIN-UCSF-BK013,2018-02-02 22:44:24+00:00,2018-02-08 17:29:42+00:00,,Sustained,21,370.5010414123535,450,Hit,1,1,0
ADMIN-UCSF-BK013,2018-02-02 22:44:24+00:00,2018-02-08 17:29:42+00:00,,Impulsive,22,397.65703678131104,360,Miss,1,0,0
ADMIN-UCSF-BK013,2018-02-02 22:44:24+00:00,2018-02-08 17:29:42+00:00,,Sustained,22,0,430,Correct Rejection,0,1,N/A
ADMIN-UCSF-BK013,2018-02-02 22:44:24+00:00,2018-02-08 17:29:42+00:00,,Impulsive,23,0,400,Correct Rejection,0,1,N/A
ADMIN-UCSF-BK013,2018-02-02 22:44:24+00:00,2018-02-08 17:29:42+00:00,,Sustained,23,284.5569849014282,430,Hit,1,1,0
ADMIN-UCSF-BK013,2018-02-02 22:44:24+00:00,2018-02-08 17:29:42+00:00,,Impulsive,24,0,400,Correct Rejection,0,1,N/A
ADMIN-UCSF-BK013,2018-02-02 22:44:24+00:00,2018-02-08 17:29:42+00:00,,Sustained,24,381.7460536956787,390,Hit,1,1,0
ADMIN-UCSF-BK013,2018-02-02 22:44:24+00:00,2018-02-08 17:29:42+00:00,,Impulsive,25,0,400,Correct Rejection,0,1,N/A
ADMIN-UCSF-BK013,2018-02-02 22:44:24+00:00,2018-02-08 17:29:42+00:00,,Sustained,25,454.76698875427246,310,Miss,1,0,0
ADMIN-UCSF-BK013,2018-02-02 22:44:24+00:00,2018-02-08 17:29:42+00:00,,Impulsive,26,0,400,Correct Rejection,0,1,N/A
ADMIN-UCSF-BK013,2018-02-02 22:44:24+00:00,2018-02-08 17:29:42+00:00,,Sustained,26,0,350,Correct Rejection,0,1,N/A
ADMIN-UCSF-BK013,2018-02-02 22:44:24+00:00,2018-02-08 17:29:42+00:00,,Impulsive,27,0,400,Correct Rejection,0,1,N/A
ADMIN-UCSF-BK013,2018-02-02 22:44:24+00:00,2018-02-08 17:29:42+00:00,,Sustained,27,362.98394203186035,350,Miss,1,0,0
ADMIN-UCSF-BK013,2018-02-02 22:44:24+00:00,2018-02-08 17:29:42+00:00,,Impulsive,28,0,400,Correct Rejection,0,1,N/A
ADMIN-UCSF-BK013,2018-02-02 22:44:24+00:00,2018-02-08 17:29:42+00:00,,Sustained,28,316.9429302215576,390,Hit,1,1,0
ADMIN-UCSF-BK013,2018-02-02 22:44:24+00:00,2018-02-08 17:29:42+00:00,,Impulsive,29,0,400,Correct Rejection,0,1,N/A
ADMIN-UCSF-BK013,2018-02-02 22:44:24+00:00,2018-02-08 17:29:42+00:00,,Sustained,29,342.9759740829468,380,Hit,1,1,0
ADMIN-UCSF-BK013,2018-02-02 22:44:24+00:00,2018-02-08 17:29:42+00:00,,Impulsive,30,0,400,Correct Rejection,0,1,N/A
ADMIN-UCSF-BK013,2018-02-02 22:44:24+00:00,2018-02-08 17:29:42+00:00,,Sustained,30,309.8759651184082,370,Hit,1,1,0
ADMIN-UCSF-BK013,2018-02-02 22:44:24+00:00,2018-02-08 17:29:42+00:00,,Impulsive,31,468.7919616699219,400,Miss,1,0,0
ADMIN-UCSF-BK013,2018-02-02 22:44:24+00:00,2018-02-08 17:29:42+00:00,,Sustained,31,309.7900152206421,350,Hit,1,1,0
ADMIN-UCSF-BK013,2018-02-02 22:44:24+00:00,2018-02-08 17:29:42+00:00,,Impulsive,32,0,440,Correct Rejection,0,1,N/A
ADMIN-UCSF-BK013,2018-02-02 22:44:24+00:00,2018-02-08 17:29:42+00:00,,Sustained,32,310.0839853286743,310,Miss,1,0,0
ADMIN-UCSF-BK013,2018-02-02 22:44:24+00:00,2018-02-08 17:29:42+00:00,,Impulsive,33,442.3789978027344,440,Miss,1,0,0
ADMIN-UCSF-BK013,2018-02-02 22:44:24+00:00,2018-02-08 17:29:42+00:00,,Sustained,33,352.1000146865845,350,Miss,1,0,0
ADMIN-UCSF-BK013,2018-02-02 22:44:24+00:00,2018-02-08 17:29:42+00:00,,Impulsive,34,0,480,Correct Rejection,0,1,N/A
ADMIN-UCSF-BK013,2018-02-02 22:44:24+00:00,2018-02-08 17:29:42+00:00,,Sustained,34,314.1789436340332,390,Hit,1,1,0
ADMIN-UCSF-BK013,2018-02-02 22:44:24+00:00,2018-02-08 17:29:42+00:00,,Impulsive,35,388.9050483703613,480,Hit,1,1,0
ADMIN-UCSF-BK013,2018-02-02 22:44:24+00:00,2018-02-08 17:29:42+00:00,,Sustained,35,0,380,Correct Rejection,0,1,N/A
ADMIN-UCSF-BK013,2018-02-02 22:44:24+00:00,2018-02-08 17:29:42+00:00,,Impulsive,36,0,470,Correct Rejection,0,1,N/A
ADMIN-UCSF-BK013,2018-02-02 22:44:24+00:00,2018-02-08 17:29:42+00:00,,Sustained,36,0,380,Correct Rejection,0,1,N/A
ADMIN-UCSF-BK013,2018-02-02 22:44:24+00:00,2018-02-08 17:29:42+00:00,,Impulsive,37,0,470,Correct Rejection,0,1,N/A
ADMIN-UCSF-BK013,2018-02-02 22:44:24+00:00,2018-02-08 17:29:42+00:00,,Sustained,37,396.2620496749878,380,Miss,1,0,0
ADMIN-UCSF-BK013,2018-02-02 22:44:24+00:00,2018-02-08 17:29:42+00:00,,Impulsive,38,0,470,Correct Rejection,0,1,N/A
ADMIN-UCSF-BK013,2018-02-02 22:44:24+00:00,2018-02-08 17:29:42+00:00,,Sustained,38,313.96400928497314,420,Hit,1,1,0
ADMIN-UCSF-BK013,2018-02-02 22:44:24+00:00,2018-02-08 17:29:42+00:00,,Impulsive,39,0,470,Correct Rejection,0,1,N/A
ADMIN-UCSF-BK013,2018-02-02 22:44:24+00:00,2018-02-08 17:29:42+00:00,,Sustained,39,350.11303424835205,410,Hit,1,1,0
