participant_id,time_gameplayed_utc,time_sent_utc,detail,condition,trial_number,response_time,response_window,trial_accuracy,position_is_top,correct_button,late_response
ADMIN-UCSF-BS002,2017-12-08 21:11:37+00:00,2017-12-12 17:39:05+00:00,,Impulsive,0,395.6719636917114,600,False Alarm,0,0,N/A
ADMIN-UCSF-BS002,2017-12-08 21:11:37+00:00,2017-12-12 17:39:05+00:00,,Sustained,0,403.1050205230713,600,False Alarm,0,0,N/A
ADMIN-UCSF-BS002,2017-12-08 21:11:37+00:00,2017-12-12 17:39:05+00:00,,Impulsive,1,0,640,Correct Rejection,0,1,N/A
ADMIN-UCSF-BS002,2017-12-08 21:11:37+00:00,2017-12-12 17:39:05+00:00,,Sustained,1,381.86895847320557,640,Hit,1,1,0
ADMIN-UCSF-BS002,2017-12-08 21:11:37+00:00,2017-12-12 17:39:05+00:00,,Impulsive,2,342.34702587127686,640,Hit,1,1,0
ADMIN-UCSF-BS002,2017-12-08 21:11:37+00:00,2017-12-12 17:39:05+00:00,,Sustained,2,0,630,Correct Rejection,0,1,N/A
ADMIN-UCSF-BS002,2017-12-08 21:11:37+00:00,2017-12-12 17:39:05+00:00,,Impulsive,3,0,630,Correct Rejection,0,1,N/A
ADMIN-UCSF-BS002,2017-12-08 21:11:37+00:00,2017-12-12 17:39:05+00:00,,Sustained,3,317.2309994697571,630,Hit,1,1,0
ADMIN-UCSF-BS002,2017-12-08 21:11:37+00:00,2017-12-12 17:39:05+00:00,,Impulsive,4,0,630,Correct Rejection,0,1,N/A
ADMIN-UCSF-BS002,2017-12-08 21:11:37+00:00,2017-12-12 17:39:05+00:00,,Sustained,4,454.84596490859985,620,Hit,1,1,0
ADMIN-UCSF-BS002,2017-12-08 21:11:37+00:00,2017-12-12 17:39:05+00:00,,Impulsive,5,0,630,Correct Rejection,0,1,N/A
ADMIN-UCSF-BS002,2017-12-08 21:11:37+00:00,2017-12-12 17:39:05+00:00,,Sustained,5,0,600,Correct Rejection,0,1,N/A
ADMIN-UCSF-BS002,2017-12-08 21:11:37+00:00,2017-12-12 17:39:05+00:00,,Impulsive,6,0,630,Correct Rejection,0,1,N/A
ADMIN-UCSF-BS002,2017-12-08 21:11:37+00:00,2017-12-12 17:39:05+00:00,,Sustained,6,0,600,Correct Rejection,0,1,N/A
ADMIN-UCSF-BS002,2017-12-08 21:11:37+00:00,2017-12-12 17:39:05+00:00,,Impulsive,7,0,630,Correct Rejection,0,1,N/A
ADMIN-UCSF-BS002,2017-12-08 21:11:37+00:00,2017-12-12 17:39:05+00:00,,Sustained,7,305.79400062561035,600,Hit,1,1,0
ADMIN-UCSF-BS002,2017-12-08 21:11:37+00:00,2017-12-12 17:39:05+00:00,,Impulsive,8,331.81101083755493,630,Hit,1,1,0
ADMIN-UCSF-BS002,2017-12-08 21:11:37+00:00,2017-12-12 17:39:05+00:00,,Sustained,8,484.8669767379761,560,Hit,1,1,0
ADMIN-UCSF-BS002,2017-12-08 21:11:37+00:00,2017-12-12 17:39:05+00:00,,Impulsive,9,0,620,Correct Rejection,0,1,N/A
ADMIN-UCSF-BS002,2017-12-08 21:11:37+00:00,2017-12-12 17:39:05+00:00,,Sustained,9,0,480,Correct Rejection,0,1,N/A
ADMIN-UCSF-BS002,2017-12-08 21:11:37+00:00,2017-12-12 17:39:05+00:00,,Impulsive,10,360.7320189476013,620,Hit,1,1,0
ADMIN-UCSF-BS002,2017-12-08 21:11:37+00:00,2017-12-12 17:39:05+00:00,,Sustained,10,N/A,480,Miss,1,0,1
ADMIN-UCSF-BS002,2017-12-08 21:11:37+00:00,2017-12-12 17:39:05+00:00,,Impulsive,11,0,600,Correct Rejection,0,1,N/A
ADMIN-UCSF-BS002,2017-12-08 21:11:37+00:00,2017-12-12 17:39:05+00:00,,Sustained,11,379.05895709991455,520,False Alarm,0,0,N/A
ADMIN-UCSF-BS002,2017-12-08 21:11:37+00:00,2017-12-12 17:39:05+00:00,,Impulsive,12,0,600,Correct Rejection,0,1,N/A
ADMIN-UCSF-BS002,2017-12-08 21:11:37+00:00,2017-12-12 17:39:05+00:00,,Sustained,12,281.75902366638184,560,Hit,1,1,0
ADMIN-UCSF-BS002,2017-12-08 21:11:37+00:00,2017-12-12 17:39:05+00:00,,Impulsive,13,0,600,Correct Rejection,0,1,N/A
ADMIN-UCSF-BS002,2017-12-08 21:11:37+00:00,2017-12-12 17:39:05+00:00,,Sustained,13,391.4099931716919,550,Hit,1,1,0
ADMIN-UCSF-BS002,2017-12-08 21:11:37+00:00,2017-12-12 17:39:05+00:00,,Impulsive,14,284.7050428390503,600,Hit,1,1,0
ADMIN-UCSF-BS002,2017-12-08 21:11:37+00:00,2017-12-12 17:39:05+00:00,,Sustained,14,434.68397855758667,540,Hit,1,1,0
ADMIN-UCSF-BS002,2017-12-08 21:11:37+00:00,2017-12-12 17:39:05+00:00,,Impulsive,15,0,560,Correct Rejection,0,1,N/A
ADMIN-UCSF-BS002,2017-12-08 21:11:37+00:00,2017-12-12 17:39:05+00:00,,Sustained,15,360.83805561065674,520,Hit,1,1,0
ADMIN-UCSF-BS002,2017-12-08 21:11:37+00:00,2017-12-12 17:39:05+00:00,,Impulsive,16,0,560,Correct Rejection,0,1,N/A
ADMIN-UCSF-BS002,2017-12-08 21:11:37+00:00,2017-12-12 17:39:05+00:00,,Sustained,16,325.1990079879761,480,Hit,1,1,0
ADMIN-UCSF-BS002,2017-12-08 21:11:37+00:00,2017-12-12 17:39:05+00:00,,Impulsive,17,0,560,Correct Rejection,0,1,N/A
ADMIN-UCSF-BS002,2017-12-08 21:11:37+00:00,2017-12-12 17:39:05+00:00,,Sustained,17,401.1250138282776,400,Miss,1,0,0
ADMIN-UCSF-BS002,2017-12-08 21:11:37+00:00,2017-12-12 17:39:05+00:00,,Impulsive,18,325.3840208053589,560,Hit,1,1,0
ADMIN-UCSF-BS002,2017-12-08 21:11:37+00:00,2017-12-12 17:39:05+00:00,,Sustained,18,274.60598945617676,440,Hit,1,1,0
ADMIN-UCSF-BS002,2017-12-08 21:11:37+00:00,2017-12-12 17:39:05+00:00,,Impulsive,19,0,480,Correct Rejection,0,1,N/A
ADMIN-UCSF-BS002,2017-12-08 21:11:37+00:00,2017-12-12 17:39:05+00:00,,Sustained,19,425.7349967956543,430,Hit,1,1,0
ADMIN-UCSF-BS002,2017-12-08 21:11:37+00:00,2017-12-12 17:39:05+00:00,,Impulsive,20,0,480,Correct Rejection,0,1,N/A
ADMIN-UCSF-BS002,2017-12-08 21:11:37+00:00,2017-12-12 17:39:05+00:00,,Sustained,20,341.1639928817749,420,Hit,1,1,0
ADMIN-UCSF-BS002,2017-12-08 21:11:37+00:00,2017-12-12 17:39:05+00:00,,Impulsive,21,389.48702812194824,480,Hit,1,1,0
ADMIN-UCSF-BS002,2017-12-08 21:11:37+00:00,2017-12-12 17:39:05+00:00,,Sustained,21,0,400,Correct Rejection,0,1,N/A
ADMIN-UCSF-BS002,2017-12-08 21:11:37+00:00,2017-12-12 17:39:05+00:00,,Impulsive,22,512.7390027046204,320,Miss,1,0,0
ADMIN-UCSF-BS002,2017-12-08 21:11:37+00:00,2017-12-12 17:39:05+00:00,,Sustained,22,0,400,Correct Rejection,0,1,N/A
ADMIN-UCSF-BS002,2017-12-08 21:11:37+00:00,2017-12-12 17:39:05+00:00,,Impulsive,23,0,360,Correct Rejection,0,1,N/A
ADMIN-UCSF-BS002,2017-12-08 21:11:37+00:00,2017-12-12 17:39:05+00:00,,Sustained,23,354.8889756202698,400,Hit,1,1,0
ADMIN-UCSF-BS002,2017-12-08 21:11:37+00:00,2017-12-12 17:39:05+00:00,,Impulsive,24,0,360,Correct Rejection,0,1,N/A
ADMIN-UCSF-BS002,2017-12-08 21:11:37+00:00,2017-12-12 17:39:05+00:00,,Sustained,24,375.04899501800537,360,False Alarm,0,0,N/A
ADMIN-UCSF-BS002,2017-12-08 21:11:37+00:00,2017-12-12 17:39:05+00:00,,Impulsive,25,521.8570232391357,360,Miss,1,0,0
ADMIN-UCSF-BS002,2017-12-08 21:11:37+00:00,2017-12-12 17:39:05+00:00,,Sustained,25,401.04299783706665,400,Miss,1,0,0
ADMIN-UCSF-BS002,2017-12-08 21:11:37+00:00,2017-12-12 17:39:05+00:00,,Impulsive,26,0,400,Correct Rejection,0,1,N/A
ADMIN-UCSF-BS002,2017-12-08 21:11:37+00:00,2017-12-12 17:39:05+00:00,,Sustained,26,0,440,Correct Rejection,0,1,N/A
ADMIN-UCSF-BS002,2017-12-08 21:11:37+00:00,2017-12-12 17:39:05+00:00,,Impulsive,27,0,400,Correct Rejection,0,1,N/A
ADMIN-UCSF-BS002,2017-12-08 21:11:37+00:00,2017-12-12 17:39:05+00:00,,Sustained,27,348.52999448776245,440,Hit,1,1,0
ADMIN-UCSF-BS002,2017-12-08 21:11:37+00:00,2017-12-12 17:39:05+00:00,,Impulsive,28,0,400,Correct Rejection,0,1,N/A
ADMIN-UCSF-BS002,2017-12-08 21:11:37+00:00,2017-12-12 17:39:05+00:00,,Sustained,28,424.3839979171753,430,Hit,1,1,0
ADMIN-UCSF-BS002,2017-12-08 21:11:37+00:00,2017-12-12 17:39:05+00:00,,Impulsive,29,0,400,Correct Rejection,0,1,N/A
ADMIN-UCSF-BS002,2017-12-08 21:11:37+00:00,2017-12-12 17:39:05+00:00,,Sustained,29,394.4939970970154,420,Hit,1,1,0
ADMIN-UCSF-BS002,2017-12-08 21:11:37+00:00,2017-12-12 17:39:05+00:00,,Impulsive,30,307.51198530197144,400,Hit,1,1,0
ADMIN-UCSF-BS002,2017-12-08 21:11:37+00:00,2017-12-12 17:39:05+00:00,,Sustained,30,395.97803354263306,400,False Alarm,0,0,N/A
ADMIN-UCSF-BS002,2017-12-08 21:11:37+00:00,2017-12-12 17:39:05+00:00,,Impulsive,31,327.3199796676636,390,Hit,1,1,0
ADMIN-UCSF-BS002,2017-12-08 21:11:37+00:00,2017-12-12 17:39:05+00:00,,Sustained,31,382.5329542160034,440,Hit,1,1,0
ADMIN-UCSF-BS002,2017-12-08 21:11:37+00:00,2017-12-12 17:39:05+00:00,,Impulsive,32,286.050021648407,380,Hit,1,1,0
ADMIN-UCSF-BS002,2017-12-08 21:11:37+00:00,2017-12-12 17:39:05+00:00,,Sustained,32,414.52300548553467,430,Hit,1,1,0
ADMIN-UCSF-BS002,2017-12-08 21:11:37+00:00,2017-12-12 17:39:05+00:00,,Impulsive,33,0,360,Correct Rejection,0,1,N/A
ADMIN-UCSF-BS002,2017-12-08 21:11:37+00:00,2017-12-12 17:39:05+00:00,,Sustained,33,368.41899156570435,420,Hit,1,1,0
ADMIN-UCSF-BS002,2017-12-08 21:11:37+00:00,2017-12-12 17:39:05+00:00,,Impulsive,34,0,360,Correct Rejection,0,1,N/A
ADMIN-UCSF-BS002,2017-12-08 21:11:37+00:00,2017-12-12 17:39:05+00:00,,Sustained,34,479.12901639938354,400,Miss,1,0,0
ADMIN-UCSF-BS002,2017-12-08 21:11:37+00:00,2017-12-12 17:39:05+00:00,,Impulsive,35,0,360,Correct Rejection,0,1,N/A
ADMIN-UCSF-BS002,2017-12-08 21:11:37+00:00,2017-12-12 17:39:05+00:00,,Sustained,35,371.0690140724182,440,Hit,1,1,0
ADMIN-UCSF-BS002,2017-12-08 21:11:37+00:00,2017-12-12 17:39:05+00:00,,Impulsive,36,299.39401149749756,360,Hit,1,1,0
ADMIN-UCSF-BS002,2017-12-08 21:11:37+00:00,2017-12-12 17:39:05+00:00,,Sustained,36,353.97303104400635,430,Hit,1,1,0
ADMIN-UCSF-BS002,2017-12-08 21:11:37+00:00,2017-12-12 17:39:05+00:00,,Impulsive,37,0,320,Correct Rejection,0,1,N/A
ADMIN-UCSF-BS002,2017-12-08 21:11:37+00:00,2017-12-12 17:39:05+00:00,,Sustained,37,403.63603830337524,420,False Alarm,0,0,N/A
ADMIN-UCSF-BS002,2017-12-08 21:11:37+00:00,2017-12-12 17:39:05+00:00,,Impulsive,38,0,320,Correct Rejection,0,1,N/A
ADMIN-UCSF-BS002,2017-12-08 21:11:37+00:00,2017-12-12 17:39:05+00:00,,Sustained,38,357.0869565010071,460,Hit,1,1,0
ADMIN-UCSF-BS002,2017-12-08 21:11:37+00:00,2017-12-12 17:39:05+00:00,,Impulsive,39,0,320,Correct Rejection,0,1,N/A
ADMIN-UCSF-BS002,2017-12-08 21:11:37+00:00,2017-12-12 17:39:05+00:00,,Sustained,39,351.96101665496826,450,Hit,1,1,0
ADMIN-UCSF-BS004,2017-12-08 21:33:17+00:00,2017-12-12 17:39:05+00:00,,Impulsive,0,0,600,Correct Rejection,0,1,N/A
ADMIN-UCSF-BS004,2017-12-08 21:33:17+00:00,2017-12-12 17:39:05+00:00,,Sustained,0,269.04797554016113,600,Hit,1,1,0
ADMIN-UCSF-BS004,2017-12-08 21:33:17+00:00,2017-12-12 17:39:05+00:00,,Impulsive,1,460.07299423217773,600,Hit,1,1,0
ADMIN-UCSF-BS004,2017-12-08 21:33:17+00:00,2017-12-12 17:39:05+00:00,,Sustained,1,411.5530252456665,590,Hit,1,1,0
ADMIN-UCSF-BS004,2017-12-08 21:33:17+00:00,2017-12-12 17:39:05+00:00,,Impulsive,2,497.9510307312012,590,False Alarm,0,0,N/A
ADMIN-UCSF-BS004,2017-12-08 21:33:17+00:00,2017-12-12 17:39:05+00:00,,Sustained,2,401.8139839172363,580,Hit,1,1,0
ADMIN-UCSF-BS004,2017-12-08 21:33:17+00:00,2017-12-12 17:39:05+00:00,,Impulsive,3,594.0430164337158,630,False Alarm,0,0,N/A
ADMIN-UCSF-BS004,2017-12-08 21:33:17+00:00,2017-12-12 17:39:05+00:00,,Sustained,3,443.2249665260315,560,Hit,1,1,0
ADMIN-UCSF-BS004,2017-12-08 21:33:17+00:00,2017-12-12 17:39:05+00:00,,Impulsive,4,0,670,Correct Rejection,0,1,N/A
ADMIN-UCSF-BS004,2017-12-08 21:33:17+00:00,2017-12-12 17:39:05+00:00,,Sustained,4,275.4790186882019,520,Hit,1,1,0
ADMIN-UCSF-BS004,2017-12-08 21:33:17+00:00,2017-12-12 17:39:05+00:00,,Impulsive,5,0,670,Correct Rejection,0,1,N/A
ADMIN-UCSF-BS004,2017-12-08 21:33:17+00:00,2017-12-12 17:39:05+00:00,,Sustained,5,0,440,Correct Rejection,0,1,N/A
ADMIN-UCSF-BS004,2017-12-08 21:33:17+00:00,2017-12-12 17:39:05+00:00,,Impulsive,6,0,670,Correct Rejection,0,1,N/A
ADMIN-UCSF-BS004,2017-12-08 21:33:17+00:00,2017-12-12 17:39:05+00:00,,Sustained,6,0,440,Correct Rejection,0,1,N/A
ADMIN-UCSF-BS004,2017-12-08 21:33:17+00:00,2017-12-12 17:39:05+00:00,,Impulsive,7,308.28696489334106,670,Hit,1,1,0
ADMIN-UCSF-BS004,2017-12-08 21:33:17+00:00,2017-12-12 17:39:05+00:00,,Sustained,7,473.91003370285034,440,Miss,1,0,0
ADMIN-UCSF-BS004,2017-12-08 21:33:17+00:00,2017-12-12 17:39:05+00:00,,Impulsive,8,0,660,Correct Rejection,0,1,N/A
ADMIN-UCSF-BS004,2017-12-08 21:33:17+00:00,2017-12-12 17:39:05+00:00,,Sustained,8,N/A,480,Miss,1,0,1
ADMIN-UCSF-BS004,2017-12-08 21:33:17+00:00,2017-12-12 17:39:05+00:00,,Impulsive,9,444.52500343322754,660,Hit,1,1,0
ADMIN-UCSF-BS004,2017-12-08 21:33:17+00:00,2017-12-12 17:39:05+00:00,,Sustained,9,461.82799339294434,520,Hit,1,1,0
ADMIN-UCSF-BS004,2017-12-08 21:33:17+00:00,2017-12-12 17:39:05+00:00,,Impulsive,10,0,650,Correct Rejection,0,1,N/A
ADMIN-UCSF-BS004,2017-12-08 21:33:17+00:00,2017-12-12 17:39:05+00:00,,Sustained,10,429.3510317802429,510,Hit,1,1,0
ADMIN-UCSF-BS004,2017-12-08 21:33:17+00:00,2017-12-12 17:39:05+00:00,,Impulsive,11,0,650,Correct Rejection,0,1,N/A
ADMIN-UCSF-BS004,2017-12-08 21:33:17+00:00,2017-12-12 17:39:05+00:00,,Sustained,11,381.0009956359863,500,Hit,1,1,0
ADMIN-UCSF-BS004,2017-12-08 21:33:17+00:00,2017-12-12 17:39:05+00:00,,Impulsive,12,0,650,Correct Rejection,0,1,N/A
ADMIN-UCSF-BS004,2017-12-08 21:33:17+00:00,2017-12-12 17:39:05+00:00,,Sustained,12,0,480,Correct Rejection,0,1,N/A
ADMIN-UCSF-BS004,2017-12-08 21:33:17+00:00,2017-12-12 17:39:05+00:00,,Impulsive,13,510.8709931373596,650,Hit,1,1,0
ADMIN-UCSF-BS004,2017-12-08 21:33:17+00:00,2017-12-12 17:39:05+00:00,,Sustained,13,295.5300211906433,480,Hit,1,1,0
ADMIN-UCSF-BS004,2017-12-08 21:33:17+00:00,2017-12-12 17:39:05+00:00,,Impulsive,14,0,630,Correct Rejection,0,1,N/A
ADMIN-UCSF-BS004,2017-12-08 21:33:17+00:00,2017-12-12 17:39:05+00:00,,Sustained,14,431.12701177597046,440,Hit,1,1,0
ADMIN-UCSF-BS004,2017-12-08 21:33:17+00:00,2017-12-12 17:39:05+00:00,,Impulsive,15,364.33297395706177,630,False Alarm,0,0,N/A
ADMIN-UCSF-BS004,2017-12-08 21:33:17+00:00,2017-12-12 17:39:05+00:00,,Sustained,15,572.6810097694397,360,Miss,1,0,0
ADMIN-UCSF-BS004,2017-12-08 21:33:17+00:00,2017-12-12 17:39:05+00:00,,Impulsive,16,0,670,Correct Rejection,0,1,N/A
ADMIN-UCSF-BS004,2017-12-08 21:33:17+00:00,2017-12-12 17:39:05+00:00,,Sustained,16,0,400,Correct Rejection,0,1,N/A
ADMIN-UCSF-BS004,2017-12-08 21:33:17+00:00,2017-12-12 17:39:05+00:00,,Impulsive,17,0,670,Correct Rejection,0,1,N/A
ADMIN-UCSF-BS004,2017-12-08 21:33:17+00:00,2017-12-12 17:39:05+00:00,,Sustained,17,283.5019826889038,400,Hit,1,1,0
ADMIN-UCSF-BS004,2017-12-08 21:33:17+00:00,2017-12-12 17:39:05+00:00,,Impulsive,18,0,670,Correct Rejection,0,1,N/A
ADMIN-UCSF-BS004,2017-12-08 21:33:17+00:00,2017-12-12 17:39:05+00:00,,Sustained,18,416.8049693107605,390,Miss,1,0,0
ADMIN-UCSF-BS004,2017-12-08 21:33:17+00:00,2017-12-12 17:39:05+00:00,,Impulsive,19,441.6849613189697,670,Hit,1,1,0
ADMIN-UCSF-BS004,2017-12-08 21:33:17+00:00,2017-12-12 17:39:05+00:00,,Sustained,19,0,430,Correct Rejection,0,1,N/A
ADMIN-UCSF-BS004,2017-12-08 21:33:17+00:00,2017-12-12 17:39:05+00:00,,Impulsive,20,390.5419707298279,660,False Alarm,0,0,N/A
ADMIN-UCSF-BS004,2017-12-08 21:33:17+00:00,2017-12-12 17:39:05+00:00,,Sustained,20,224.40403699874878,430,Hit,1,1,0
ADMIN-UCSF-BS004,2017-12-08 21:33:17+00:00,2017-12-12 17:39:05+00:00,,Impulsive,21,484.01397466659546,700,Hit,1,1,0
ADMIN-UCSF-BS004,2017-12-08 21:33:17+00:00,2017-12-12 17:39:05+00:00,,Sustained,21,0,420,Correct Rejection,0,1,N/A
ADMIN-UCSF-BS004,2017-12-08 21:33:17+00:00,2017-12-12 17:39:05+00:00,,Impulsive,22,0,690,Correct Rejection,0,1,N/A
ADMIN-UCSF-BS004,2017-12-08 21:33:17+00:00,2017-12-12 17:39:05+00:00,,Sustained,22,296.7259883880615,420,Hit,1,1,0
ADMIN-UCSF-BS004,2017-12-08 21:33:17+00:00,2017-12-12 17:39:05+00:00,,Impulsive,23,0,690,Correct Rejection,0,1,N/A
ADMIN-UCSF-BS004,2017-12-08 21:33:17+00:00,2017-12-12 17:39:05+00:00,,Sustained,23,443.1900382041931,410,Miss,1,0,0
ADMIN-UCSF-BS004,2017-12-08 21:33:17+00:00,2017-12-12 17:39:05+00:00,,Impulsive,24,368.2520389556885,690,Hit,1,1,0
ADMIN-UCSF-BS004,2017-12-08 21:33:17+00:00,2017-12-12 17:39:05+00:00,,Sustained,24,500.296950340271,450,Miss,1,0,0
ADMIN-UCSF-BS004,2017-12-08 21:33:17+00:00,2017-12-12 17:39:05+00:00,,Impulsive,25,0,680,Correct Rejection,0,1,N/A
ADMIN-UCSF-BS004,2017-12-08 21:33:17+00:00,2017-12-12 17:39:05+00:00,,Sustained,25,251.61796808242798,490,Hit,1,1,0
ADMIN-UCSF-BS004,2017-12-08 21:33:17+00:00,2017-12-12 17:39:05+00:00,,Impulsive,26,365.4809594154358,680,Hit,1,1,0
ADMIN-UCSF-BS004,2017-12-08 21:33:17+00:00,2017-12-12 17:39:05+00:00,,Sustained,26,399.0989923477173,480,Hit,1,1,0
ADMIN-UCSF-BS004,2017-12-08 21:33:17+00:00,2017-12-12 17:39:05+00:00,,Impulsive,27,548.9259958267212,660,Hit,1,1,0
ADMIN-UCSF-BS004,2017-12-08 21:33:17+00:00,2017-12-12 17:39:05+00:00,,Sustained,27,0,470,Correct Rejection,0,1,N/A
ADMIN-UCSF-BS004,2017-12-08 21:33:17+00:00,2017-12-12 17:39:05+00:00,,Impulsive,28,418.23601722717285,620,Hit,1,1,0
ADMIN-UCSF-BS004,2017-12-08 21:33:17+00:00,2017-12-12 17:39:05+00:00,,Sustained,28,448.91101121902466,470,Hit,1,1,0
ADMIN-UCSF-BS004,2017-12-08 21:33:17+00:00,2017-12-12 17:39:05+00:00,,Impulsive,29,0,540,Correct Rejection,0,1,N/A
ADMIN-UCSF-BS004,2017-12-08 21:33:17+00:00,2017-12-12 17:39:05+00:00,,Sustained,29,358.53099822998047,450,Hit,1,1,0
ADMIN-UCSF-BS004,2017-12-08 21:33:17+00:00,2017-12-12 17:39:05+00:00,,Impulsive,30,0,540,Correct Rejection,0,1,N/A
ADMIN-UCSF-BS004,2017-12-08 21:33:17+00:00,2017-12-12 17:39:05+00:00,,Sustained,30,0,410,Correct Rejection,0,1,N/A
ADMIN-UCSF-BS004,2017-12-08 21:33:17+00:00,2017-12-12 17:39:05+00:00,,Impulsive,31,0,540,Correct Rejection,0,1,N/A
ADMIN-UCSF-BS004,2017-12-08 21:33:17+00:00,2017-12-12 17:39:05+00:00,,Sustained,31,375.1090168952942,410,False Alarm,0,0,N/A
ADMIN-UCSF-BS004,2017-12-08 21:33:17+00:00,2017-12-12 17:39:05+00:00,,Impulsive,32,504.5279860496521,540,Hit,1,1,0
ADMIN-UCSF-BS004,2017-12-08 21:33:17+00:00,2017-12-12 17:39:05+00:00,,Sustained,32,N/A,450,Miss,1,0,1
ADMIN-UCSF-BS004,2017-12-08 21:33:17+00:00,2017-12-12 17:39:05+00:00,,Impulsive,33,676.7770051956177,380,False Alarm,0,0,N/A
ADMIN-UCSF-BS004,2017-12-08 21:33:17+00:00,2017-12-12 17:39:05+00:00,,Sustained,33,0,490,Correct Rejection,0,1,N/A
ADMIN-UCSF-BS004,2017-12-08 21:33:17+00:00,2017-12-12 17:39:05+00:00,,Impulsive,34,497.0639944076538,420,Miss,1,0,0
ADMIN-UCSF-BS004,2017-12-08 21:33:17+00:00,2017-12-12 17:39:05+00:00,,Sustained,34,466.49396419525146,490,Hit,1,1,0
ADMIN-UCSF-BS004,2017-12-08 21:33:17+00:00,2017-12-12 17:39:05+00:00,,Impulsive,35,0,460,Correct Rejection,0,1,N/A
ADMIN-UCSF-BS004,2017-12-08 21:33:17+00:00,2017-12-12 17:39:05+00:00,,Sustained,35,403.8800001144409,480,False Alarm,0,0,N/A
ADMIN-UCSF-BS004,2017-12-08 21:33:17+00:00,2017-12-12 17:39:05+00:00,,Impulsive,36,0,460,Correct Rejection,0,1,N/A
ADMIN-UCSF-BS004,2017-12-08 21:33:17+00:00,2017-12-12 17:39:05+00:00,,Sustained,36,564.2820000648499,520,Miss,1,0,0
ADMIN-UCSF-BS004,2017-12-08 21:33:17+00:00,2017-12-12 17:39:05+00:00,,Impulsive,37,0,460,Correct Rejection,0,1,N/A
ADMIN-UCSF-BS004,2017-12-08 21:33:17+00:00,2017-12-12 17:39:05+00:00,,Sustained,37,604.4470071792603,560,Miss,1,0,0
ADMIN-UCSF-BS004,2017-12-08 21:33:17+00:00,2017-12-12 17:39:05+00:00,,Impulsive,38,0,460,Correct Rejection,0,1,N/A
ADMIN-UCSF-BS004,2017-12-08 21:33:17+00:00,2017-12-12 17:39:05+00:00,,Sustained,38,450.9579539299011,640,Hit,1,1,0
ADMIN-UCSF-BS004,2017-12-08 21:33:17+00:00,2017-12-12 17:39:05+00:00,,Impulsive,39,0,460,Correct Rejection,0,1,N/A
ADMIN-UCSF-BS004,2017-12-08 21:33:17+00:00,2017-12-12 17:39:05+00:00,,Sustained,39,0,630,Correct Rejection,0,1,N/A
ADMIN-UCSF-BS001,2017-12-08 21:53:00+00:00,2017-12-12 17:39:05+00:00,,Impulsive,0,0,600,Correct Rejection,0,1,N/A
ADMIN-UCSF-BS001,2017-12-08 21:53:00+00:00,2017-12-12 17:39:05+00:00,,Sustained,0,461.40801906585693,600,Hit,1,1,0
ADMIN-UCSF-BS001,2017-12-08 21:53:00+00:00,2017-12-12 17:39:05+00:00,,Impulsive,1,362.07401752471924,600,False Alarm,0,0,N/A
ADMIN-UCSF-BS001,2017-12-08 21:53:00+00:00,2017-12-12 17:39:05+00:00,,Sustained,1,328.6299705505371,590,Hit,1,1,0
ADMIN-UCSF-BS001,2017-12-08 21:53:00+00:00,2017-12-12 17:39:05+00:00,,Impulsive,2,0,640,Correct Rejection,0,1,N/A
ADMIN-UCSF-BS001,2017-12-08 21:53:00+00:00,2017-12-12 17:39:05+00:00,,Sustained,2,0,580,Correct Rejection,0,1,N/A
ADMIN-UCSF-BS001,2017-12-08 21:53:00+00:00,2017-12-12 17:39:05+00:00,,Impulsive,3,0,640,Correct Rejection,0,1,N/A
ADMIN-UCSF-BS001,2017-12-08 21:53:00+00:00,2017-12-12 17:39:05+00:00,,Sustained,3,0,580,Correct Rejection,0,1,N/A
ADMIN-UCSF-BS001,2017-12-08 21:53:00+00:00,2017-12-12 17:39:05+00:00,,Impulsive,4,0,640,Correct Rejection,0,1,N/A
ADMIN-UCSF-BS001,2017-12-08 21:53:00+00:00,2017-12-12 17:39:05+00:00,,Sustained,4,381.339967250824,580,Hit,1,1,0
ADMIN-UCSF-BS001,2017-12-08 21:53:00+00:00,2017-12-12 17:39:05+00:00,,Impulsive,5,0,640,Correct Rejection,0,1,N/A
ADMIN-UCSF-BS001,2017-12-08 21:53:00+00:00,2017-12-12 17:39:05+00:00,,Sustained,5,0,560,Correct Rejection,0,1,N/A
ADMIN-UCSF-BS001,2017-12-08 21:53:00+00:00,2017-12-12 17:39:05+00:00,,Impulsive,6,614.736020565033,640,Hit,1,1,0
ADMIN-UCSF-BS001,2017-12-08 21:53:00+00:00,2017-12-12 17:39:05+00:00,,Sustained,6,329.02395725250244,560,Hit,1,1,0
ADMIN-UCSF-BS001,2017-12-08 21:53:00+00:00,2017-12-12 17:39:05+00:00,,Impulsive,7,0,630,Correct Rejection,0,1,N/A
ADMIN-UCSF-BS001,2017-12-08 21:53:00+00:00,2017-12-12 17:39:05+00:00,,Sustained,7,512.6559734344482,520,Hit,1,1,0
ADMIN-UCSF-BS001,2017-12-08 21:53:00+00:00,2017-12-12 17:39:05+00:00,,Impulsive,8,572.8409886360168,630,Hit,1,1,0
ADMIN-UCSF-BS001,2017-12-08 21:53:00+00:00,2017-12-12 17:39:05+00:00,,Sustained,8,373.4280467033386,440,Hit,1,1,0
ADMIN-UCSF-BS001,2017-12-08 21:53:00+00:00,2017-12-12 17:39:05+00:00,,Impulsive,9,0,620,Correct Rejection,0,1,N/A
ADMIN-UCSF-BS001,2017-12-08 21:53:00+00:00,2017-12-12 17:39:05+00:00,,Sustained,9,332.98802375793457,280,Miss,1,0,0
ADMIN-UCSF-BS001,2017-12-08 21:53:00+00:00,2017-12-12 17:39:05+00:00,,Impulsive,10,0,620,Correct Rejection,0,1,N/A
ADMIN-UCSF-BS001,2017-12-08 21:53:00+00:00,2017-12-12 17:39:05+00:00,,Sustained,10,292.63097047805786,320,Hit,1,1,0
ADMIN-UCSF-BS001,2017-12-08 21:53:00+00:00,2017-12-12 17:39:05+00:00,,Impulsive,11,460.27398109436035,620,Hit,1,1,0
ADMIN-UCSF-BS001,2017-12-08 21:53:00+00:00,2017-12-12 17:39:05+00:00,,Sustained,11,301.35399103164673,310,Hit,1,1,0
ADMIN-UCSF-BS001,2017-12-08 21:53:00+00:00,2017-12-12 17:39:05+00:00,,Impulsive,12,0,600,Correct Rejection,0,1,N/A
ADMIN-UCSF-BS001,2017-12-08 21:53:00+00:00,2017-12-12 17:39:05+00:00,,Sustained,12,274.1889953613281,300,False Alarm,0,0,N/A
ADMIN-UCSF-BS001,2017-12-08 21:53:00+00:00,2017-12-12 17:39:05+00:00,,Impulsive,13,0,600,Correct Rejection,0,1,N/A
ADMIN-UCSF-BS001,2017-12-08 21:53:00+00:00,2017-12-12 17:39:05+00:00,,Sustained,13,375.69695711135864,340,Miss,1,0,0
ADMIN-UCSF-BS001,2017-12-08 21:53:00+00:00,2017-12-12 17:39:05+00:00,,Impulsive,14,398.7619876861572,600,Hit,1,1,0
ADMIN-UCSF-BS001,2017-12-08 21:53:00+00:00,2017-12-12 17:39:05+00:00,,Sustained,14,416.90200567245483,380,Miss,1,0,0
ADMIN-UCSF-BS001,2017-12-08 21:53:00+00:00,2017-12-12 17:39:05+00:00,,Impulsive,15,0,560,Correct Rejection,0,1,N/A
ADMIN-UCSF-BS001,2017-12-08 21:53:00+00:00,2017-12-12 17:39:05+00:00,,Sustained,15,0,460,Correct Rejection,0,1,N/A
ADMIN-UCSF-BS001,2017-12-08 21:53:00+00:00,2017-12-12 17:39:05+00:00,,Impulsive,16,0,560,Correct Rejection,0,1,N/A
ADMIN-UCSF-BS001,2017-12-08 21:53:00+00:00,2017-12-12 17:39:05+00:00,,Sustained,16,401.0009765625,460,Hit,1,1,0
ADMIN-UCSF-BS001,2017-12-08 21:53:00+00:00,2017-12-12 17:39:05+00:00,,Impulsive,17,527.2610187530518,560,Hit,1,1,0
ADMIN-UCSF-BS001,2017-12-08 21:53:00+00:00,2017-12-12 17:39:05+00:00,,Sustained,17,39.73501920700073,450,Miss,1,0,1
ADMIN-UCSF-BS001,2017-12-08 21:53:00+00:00,2017-12-12 17:39:05+00:00,,Impulsive,18,422.7449893951416,480,Hit,1,1,0
ADMIN-UCSF-BS001,2017-12-08 21:53:00+00:00,2017-12-12 17:39:05+00:00,,Sustained,18,367.25401878356934,490,Hit,1,1,0
ADMIN-UCSF-BS001,2017-12-08 21:53:00+00:00,2017-12-12 17:39:05+00:00,,Impulsive,19,0,320,Correct Rejection,0,1,N/A
ADMIN-UCSF-BS001,2017-12-08 21:53:00+00:00,2017-12-12 17:39:05+00:00,,Sustained,19,415.19904136657715,480,Hit,1,1,0
ADMIN-UCSF-BS001,2017-12-08 21:53:00+00:00,2017-12-12 17:39:05+00:00,,Impulsive,20,0,320,Correct Rejection,0,1,N/A
ADMIN-UCSF-BS001,2017-12-08 21:53:00+00:00,2017-12-12 17:39:05+00:00,,Sustained,20,416.77796840667725,470,Hit,1,1,0
ADMIN-UCSF-BS001,2017-12-08 21:53:00+00:00,2017-12-12 17:39:05+00:00,,Impulsive,21,N/A,320,Miss,1,0,1
ADMIN-UCSF-BS001,2017-12-08 21:53:00+00:00,2017-12-12 17:39:05+00:00,,Sustained,21,0,450,Correct Rejection,0,1,N/A
ADMIN-UCSF-BS001,2017-12-08 21:53:00+00:00,2017-12-12 17:39:05+00:00,,Impulsive,22,375.4010200500488,360,Miss,1,0,0
ADMIN-UCSF-BS001,2017-12-08 21:53:00+00:00,2017-12-12 17:39:05+00:00,,Sustained,22,0,450,Correct Rejection,0,1,N/A
ADMIN-UCSF-BS001,2017-12-08 21:53:00+00:00,2017-12-12 17:39:05+00:00,,Impulsive,23,0,400,Correct Rejection,0,1,N/A
ADMIN-UCSF-BS001,2017-12-08 21:53:00+00:00,2017-12-12 17:39:05+00:00,,Sustained,23,0,450,Correct Rejection,0,1,N/A
ADMIN-UCSF-BS001,2017-12-08 21:53:00+00:00,2017-12-12 17:39:05+00:00,,Impulsive,24,0,400,Correct Rejection,0,1,N/A
ADMIN-UCSF-BS001,2017-12-08 21:53:00+00:00,2017-12-12 17:39:05+00:00,,Sustained,24,547.2239851951599,450,Miss,1,0,0
ADMIN-UCSF-BS001,2017-12-08 21:53:00+00:00,2017-12-12 17:39:05+00:00,,Impulsive,25,0,400,Correct Rejection,0,1,N/A
ADMIN-UCSF-BS001,2017-12-08 21:53:00+00:00,2017-12-12 17:39:05+00:00,,Sustained,25,318.32098960876465,490,Hit,1,1,0
ADMIN-UCSF-BS001,2017-12-08 21:53:00+00:00,2017-12-12 17:39:05+00:00,,Impulsive,26,0,400,Correct Rejection,0,1,N/A
ADMIN-UCSF-BS001,2017-12-08 21:53:00+00:00,2017-12-12 17:39:05+00:00,,Sustained,26,0,480,Correct Rejection,0,1,N/A
ADMIN-UCSF-BS001,2017-12-08 21:53:00+00:00,2017-12-12 17:39:05+00:00,,Impulsive,27,0,400,Correct Rejection,0,1,N/A
ADMIN-UCSF-BS001,2017-12-08 21:53:00+00:00,2017-12-12 17:39:05+00:00,,Sustained,27,0,480,Correct Rejection,0,1,N/A
ADMIN-UCSF-BS001,2017-12-08 21:53:00+00:00,2017-12-12 17:39:05+00:00,,Impulsive,28,0,400,Correct Rejection,0,1,N/A
ADMIN-UCSF-BS001,2017-12-08 21:53:00+00:00,2017-12-12 17:39:05+00:00,,Sustained,28,337.2350335121155,480,Hit,1,1,0
ADMIN-UCSF-BS001,2017-12-08 21:53:00+00:00,2017-12-12 17:39:05+00:00,,Impulsive,29,0,400,Correct Rejection,0,1,N/A
ADMIN-UCSF-BS001,2017-12-08 21:53:00+00:00,2017-12-12 17:39:05+00:00,,Sustained,29,300.00001192092896,470,Hit,1,1,0
ADMIN-UCSF-BS001,2017-12-08 21:53:00+00:00,2017-12-12 17:39:05+00:00,,Impulsive,30,0,400,Correct Rejection,0,1,N/A
ADMIN-UCSF-BS001,2017-12-08 21:53:00+00:00,2017-12-12 17:39:05+00:00,,Sustained,30,373.2529878616333,450,Hit,1,1,0
ADMIN-UCSF-BS001,2017-12-08 21:53:00+00:00,2017-12-12 17:39:05+00:00,,Impulsive,31,0,400,Correct Rejection,0,1,N/A
ADMIN-UCSF-BS001,2017-12-08 21:53:00+00:00,2017-12-12 17:39:05+00:00,,Sustained,31,371.4349865913391,410,Hit,1,1,0
ADMIN-UCSF-BS001,2017-12-08 21:53:00+00:00,2017-12-12 17:39:05+00:00,,Impulsive,32,435.2959990501404,400,Miss,1,0,0
ADMIN-UCSF-BS001,2017-12-08 21:53:00+00:00,2017-12-12 17:39:05+00:00,,Sustained,32,330.7749629020691,330,Miss,1,0,0
ADMIN-UCSF-BS001,2017-12-08 21:53:00+00:00,2017-12-12 17:39:05+00:00,,Impulsive,33,331.74198865890503,440,Hit,1,1,0
ADMIN-UCSF-BS001,2017-12-08 21:53:00+00:00,2017-12-12 17:39:05+00:00,,Sustained,33,317.9750442504883,370,False Alarm,0,0,N/A
ADMIN-UCSF-BS001,2017-12-08 21:53:00+00:00,2017-12-12 17:39:05+00:00,,Impulsive,34,304.4889569282532,430,False Alarm,0,0,N/A
ADMIN-UCSF-BS001,2017-12-08 21:53:00+00:00,2017-12-12 17:39:05+00:00,,Sustained,34,378.8440227508545,410,Hit,1,1,0
ADMIN-UCSF-BS001,2017-12-08 21:53:00+00:00,2017-12-12 17:39:05+00:00,,Impulsive,35,405.34597635269165,470,Hit,1,1,0
ADMIN-UCSF-BS001,2017-12-08 21:53:00+00:00,2017-12-12 17:39:05+00:00,,Sustained,35,394.7870135307312,400,Hit,1,1,0
ADMIN-UCSF-BS001,2017-12-08 21:53:00+00:00,2017-12-12 17:39:05+00:00,,Impulsive,36,347.86003828048706,460,Hit,1,1,0
ADMIN-UCSF-BS001,2017-12-08 21:53:00+00:00,2017-12-12 17:39:05+00:00,,Sustained,36,402.3510217666626,390,Miss,1,0,0
ADMIN-UCSF-BS001,2017-12-08 21:53:00+00:00,2017-12-12 17:39:05+00:00,,Impulsive,37,387.80903816223145,450,False Alarm,0,0,N/A
ADMIN-UCSF-BS001,2017-12-08 21:53:00+00:00,2017-12-12 17:39:05+00:00,,Sustained,37,320.1020359992981,430,Hit,1,1,0
ADMIN-UCSF-BS001,2017-12-08 21:53:00+00:00,2017-12-12 17:39:05+00:00,,Impulsive,38,390.9580111503601,490,False Alarm,0,0,N/A
ADMIN-UCSF-BS001,2017-12-08 21:53:00+00:00,2017-12-12 17:39:05+00:00,,Sustained,38,0,420,Correct Rejection,0,1,N/A
ADMIN-UCSF-BS001,2017-12-08 21:53:00+00:00,2017-12-12 17:39:05+00:00,,Impulsive,39,557.2270154953003,530,False Alarm,0,0,N/A
ADMIN-UCSF-BS001,2017-12-08 21:53:00+00:00,2017-12-12 17:39:05+00:00,,Sustained,39,552.4290204048157,420,Miss,1,0,0
ADMIN-UCSF-BS012,2018-03-18 16:09:50+00:00,2018-04-16 20:30:00+00:00,,Impulsive,0,0,600,Correct Rejection,0,1,N/A
ADMIN-UCSF-BS012,2018-03-18 16:09:50+00:00,2018-04-16 20:30:00+00:00,,Sustained,0,0,600,Correct Rejection,0,1,N/A
ADMIN-UCSF-BS012,2018-03-18 16:09:50+00:00,2018-04-16 20:30:00+00:00,,Impulsive,1,0,600,Correct Rejection,0,1,N/A
ADMIN-UCSF-BS012,2018-03-18 16:09:50+00:00,2018-04-16 20:30:00+00:00,,Sustained,1,223.56605529785156,600,Hit,1,1,0
ADMIN-UCSF-BS012,2018-03-18 16:09:50+00:00,2018-04-16 20:30:00+00:00,,Impulsive,2,N/A,600,Miss,1,0,1
ADMIN-UCSF-BS012,2018-03-18 16:09:50+00:00,2018-04-16 20:30:00+00:00,,Sustained,2,293.9029932022095,590,False Alarm,0,0,N/A
ADMIN-UCSF-BS012,2018-03-18 16:09:50+00:00,2018-04-16 20:30:00+00:00,,Impulsive,3,0,640,Correct Rejection,0,1,N/A
ADMIN-UCSF-BS012,2018-03-18 16:09:50+00:00,2018-04-16 20:30:00+00:00,,Sustained,3,319.5909261703491,630,Hit,1,1,0
ADMIN-UCSF-BS012,2018-03-18 16:09:50+00:00,2018-04-16 20:30:00+00:00,,Impulsive,4,0,640,Correct Rejection,0,1,N/A
ADMIN-UCSF-BS012,2018-03-18 16:09:50+00:00,2018-04-16 20:30:00+00:00,,Sustained,4,0,620,Correct Rejection,0,1,N/A
ADMIN-UCSF-BS012,2018-03-18 16:09:50+00:00,2018-04-16 20:30:00+00:00,,Impulsive,5,0,640,Correct Rejection,0,1,N/A
ADMIN-UCSF-BS012,2018-03-18 16:09:50+00:00,2018-04-16 20:30:00+00:00,,Sustained,5,N/A,620,Miss,1,0,1
ADMIN-UCSF-BS012,2018-03-18 16:09:50+00:00,2018-04-16 20:30:00+00:00,,Impulsive,6,0,640,Correct Rejection,0,1,N/A
ADMIN-UCSF-BS012,2018-03-18 16:09:50+00:00,2018-04-16 20:30:00+00:00,,Sustained,6,557.9699277877808,660,Hit,1,1,0
ADMIN-UCSF-BS012,2018-03-18 16:09:50+00:00,2018-04-16 20:30:00+00:00,,Impulsive,7,0,640,Correct Rejection,0,1,N/A
ADMIN-UCSF-BS012,2018-03-18 16:09:50+00:00,2018-04-16 20:30:00+00:00,,Sustained,7,406.83698654174805,650,Hit,1,1,0
ADMIN-UCSF-BS012,2018-03-18 16:09:50+00:00,2018-04-16 20:30:00+00:00,,Impulsive,8,0,640,Correct Rejection,0,1,N/A
ADMIN-UCSF-BS012,2018-03-18 16:09:50+00:00,2018-04-16 20:30:00+00:00,,Sustained,8,402.0789861679077,640,Hit,1,1,0
ADMIN-UCSF-BS012,2018-03-18 16:09:50+00:00,2018-04-16 20:30:00+00:00,,Impulsive,9,0,640,Correct Rejection,0,1,N/A
ADMIN-UCSF-BS012,2018-03-18 16:09:50+00:00,2018-04-16 20:30:00+00:00,,Sustained,9,463.2599353790283,620,Hit,1,1,0
ADMIN-UCSF-BS012,2018-03-18 16:09:50+00:00,2018-04-16 20:30:00+00:00,,Impulsive,10,414.6019220352173,640,Hit,1,1,0
ADMIN-UCSF-BS012,2018-03-18 16:09:50+00:00,2018-04-16 20:30:00+00:00,,Sustained,10,358.5059642791748,580,Hit,1,1,0
ADMIN-UCSF-BS012,2018-03-18 16:09:50+00:00,2018-04-16 20:30:00+00:00,,Impulsive,11,0,630,Correct Rejection,0,1,N/A
ADMIN-UCSF-BS012,2018-03-18 16:09:50+00:00,2018-04-16 20:30:00+00:00,,Sustained,11,361.8870973587036,500,Hit,1,1,0
ADMIN-UCSF-BS012,2018-03-18 16:09:50+00:00,2018-04-16 20:30:00+00:00,,Impulsive,12,0,630,Correct Rejection,0,1,N/A
ADMIN-UCSF-BS012,2018-03-18 16:09:50+00:00,2018-04-16 20:30:00+00:00,,Sustained,12,315.61601161956787,340,Hit,1,1,0
ADMIN-UCSF-BS012,2018-03-18 16:09:50+00:00,2018-04-16 20:30:00+00:00,,Impulsive,13,0,630,Correct Rejection,0,1,N/A
ADMIN-UCSF-BS012,2018-03-18 16:09:50+00:00,2018-04-16 20:30:00+00:00,,Sustained,13,418.5680150985718,20,Miss,1,0,0
ADMIN-UCSF-BS012,2018-03-18 16:09:50+00:00,2018-04-16 20:30:00+00:00,,Impulsive,14,466.41504764556885,630,Hit,1,1,0
ADMIN-UCSF-BS012,2018-03-18 16:09:50+00:00,2018-04-16 20:30:00+00:00,,Sustained,14,330.33907413482666,60,Miss,1,0,0
ADMIN-UCSF-BS012,2018-03-18 16:09:50+00:00,2018-04-16 20:30:00+00:00,,Impulsive,15,623.8360404968262,620,Miss,1,0,0
ADMIN-UCSF-BS012,2018-03-18 16:09:50+00:00,2018-04-16 20:30:00+00:00,,Sustained,15,0,100,Correct Rejection,0,1,N/A
ADMIN-UCSF-BS012,2018-03-18 16:09:50+00:00,2018-04-16 20:30:00+00:00,,Impulsive,16,349.00200366973877,660,False Alarm,0,0,N/A
ADMIN-UCSF-BS012,2018-03-18 16:09:50+00:00,2018-04-16 20:30:00+00:00,,Sustained,16,323.27401638031006,100,Miss,1,0,0
ADMIN-UCSF-BS012,2018-03-18 16:09:50+00:00,2018-04-16 20:30:00+00:00,,Impulsive,17,356.5119504928589,700,False Alarm,0,0,N/A
ADMIN-UCSF-BS012,2018-03-18 16:09:50+00:00,2018-04-16 20:30:00+00:00,,Sustained,17,317.410945892334,140,Miss,1,0,0
ADMIN-UCSF-BS012,2018-03-18 16:09:50+00:00,2018-04-16 20:30:00+00:00,,Impulsive,18,0,780,Correct Rejection,0,1,N/A
ADMIN-UCSF-BS012,2018-03-18 16:09:50+00:00,2018-04-16 20:30:00+00:00,,Sustained,18,581.8500518798828,180,Miss,1,0,0
ADMIN-UCSF-BS012,2018-03-18 16:09:50+00:00,2018-04-16 20:30:00+00:00,,Impulsive,19,0,780,Correct Rejection,0,1,N/A
ADMIN-UCSF-BS012,2018-03-18 16:09:50+00:00,2018-04-16 20:30:00+00:00,,Sustained,19,317.05498695373535,260,Miss,1,0,0
ADMIN-UCSF-BS012,2018-03-18 16:09:50+00:00,2018-04-16 20:30:00+00:00,,Impulsive,20,0,780,Correct Rejection,0,1,N/A
ADMIN-UCSF-BS012,2018-03-18 16:09:50+00:00,2018-04-16 20:30:00+00:00,,Sustained,20,299.7009754180908,420,Hit,1,1,0
ADMIN-UCSF-BS012,2018-03-18 16:09:50+00:00,2018-04-16 20:30:00+00:00,,Impulsive,21,0,780,Correct Rejection,0,1,N/A
ADMIN-UCSF-BS012,2018-03-18 16:09:50+00:00,2018-04-16 20:30:00+00:00,,Sustained,21,325.45697689056396,410,Hit,1,1,0
ADMIN-UCSF-BS012,2018-03-18 16:09:50+00:00,2018-04-16 20:30:00+00:00,,Impulsive,22,449.27000999450684,780,Hit,1,1,0
ADMIN-UCSF-BS012,2018-03-18 16:09:50+00:00,2018-04-16 20:30:00+00:00,,Sustained,22,240.7510280609131,400,False Alarm,0,0,N/A
ADMIN-UCSF-BS012,2018-03-18 16:09:50+00:00,2018-04-16 20:30:00+00:00,,Impulsive,23,0,770,Correct Rejection,0,1,N/A
ADMIN-UCSF-BS012,2018-03-18 16:09:50+00:00,2018-04-16 20:30:00+00:00,,Sustained,23,321.47395610809326,440,Hit,1,1,0
ADMIN-UCSF-BS012,2018-03-18 16:09:50+00:00,2018-04-16 20:30:00+00:00,,Impulsive,24,406.50999546051025,770,Hit,1,1,0
ADMIN-UCSF-BS012,2018-03-18 16:09:50+00:00,2018-04-16 20:30:00+00:00,,Sustained,24,364.8359775543213,430,Hit,1,1,0
ADMIN-UCSF-BS012,2018-03-18 16:09:50+00:00,2018-04-16 20:30:00+00:00,,Impulsive,25,0,760,Correct Rejection,0,1,N/A
ADMIN-UCSF-BS012,2018-03-18 16:09:50+00:00,2018-04-16 20:30:00+00:00,,Sustained,25,0,420,Correct Rejection,0,1,N/A
ADMIN-UCSF-BS012,2018-03-18 16:09:50+00:00,2018-04-16 20:30:00+00:00,,Impulsive,26,273.68199825286865,760,Hit,1,1,0
ADMIN-UCSF-BS012,2018-03-18 16:09:50+00:00,2018-04-16 20:30:00+00:00,,Sustained,26,322.2149610519409,420,Hit,1,1,0
ADMIN-UCSF-BS012,2018-03-18 16:09:50+00:00,2018-04-16 20:30:00+00:00,,Impulsive,27,0,740,Correct Rejection,0,1,N/A
ADMIN-UCSF-BS012,2018-03-18 16:09:50+00:00,2018-04-16 20:30:00+00:00,,Sustained,27,347.65303134918213,400,Hit,1,1,0
ADMIN-UCSF-BS012,2018-03-18 16:09:50+00:00,2018-04-16 20:30:00+00:00,,Impulsive,28,0,740,Correct Rejection,0,1,N/A
ADMIN-UCSF-BS012,2018-03-18 16:09:50+00:00,2018-04-16 20:30:00+00:00,,Sustained,28,0,360,Correct Rejection,0,1,N/A
ADMIN-UCSF-BS012,2018-03-18 16:09:50+00:00,2018-04-16 20:30:00+00:00,,Impulsive,29,425.42803287506104,740,Hit,1,1,0
ADMIN-UCSF-BS012,2018-03-18 16:09:50+00:00,2018-04-16 20:30:00+00:00,,Sustained,29,649.5059728622437,360,Miss,1,0,0
ADMIN-UCSF-BS012,2018-03-18 16:09:50+00:00,2018-04-16 20:30:00+00:00,,Impulsive,30,483.46590995788574,700,Hit,1,1,0
ADMIN-UCSF-BS012,2018-03-18 16:09:50+00:00,2018-04-16 20:30:00+00:00,,Sustained,30,463.4169340133667,400,Miss,1,0,0
ADMIN-UCSF-BS012,2018-03-18 16:09:50+00:00,2018-04-16 20:30:00+00:00,,Impulsive,31,644.1830396652222,620,Miss,1,0,0
ADMIN-UCSF-BS012,2018-03-18 16:09:50+00:00,2018-04-16 20:30:00+00:00,,Sustained,31,0,440,Correct Rejection,0,1,N/A
ADMIN-UCSF-BS012,2018-03-18 16:09:50+00:00,2018-04-16 20:30:00+00:00,,Impulsive,32,0,660,Correct Rejection,0,1,N/A
ADMIN-UCSF-BS012,2018-03-18 16:09:50+00:00,2018-04-16 20:30:00+00:00,,Sustained,32,534.6150398254395,440,Miss,1,0,0
ADMIN-UCSF-BS012,2018-03-18 16:09:50+00:00,2018-04-16 20:30:00+00:00,,Impulsive,33,0,660,Correct Rejection,0,1,N/A
ADMIN-UCSF-BS012,2018-03-18 16:09:50+00:00,2018-04-16 20:30:00+00:00,,Sustained,33,0,480,Correct Rejection,0,1,N/A
ADMIN-UCSF-BS012,2018-03-18 16:09:50+00:00,2018-04-16 20:30:00+00:00,,Impulsive,34,0,660,Correct Rejection,0,1,N/A
ADMIN-UCSF-BS012,2018-03-18 16:09:50+00:00,2018-04-16 20:30:00+00:00,,Sustained,34,316.0710334777832,480,Hit,1,1,0
ADMIN-UCSF-BS012,2018-03-18 16:09:50+00:00,2018-04-16 20:30:00+00:00,,Impulsive,35,356.6451072692871,660,Hit,1,1,0
ADMIN-UCSF-BS012,2018-03-18 16:09:50+00:00,2018-04-16 20:30:00+00:00,,Sustained,35,478.56605052948,470,Miss,1,0,0
ADMIN-UCSF-BS012,2018-03-18 16:09:50+00:00,2018-04-16 20:30:00+00:00,,Impulsive,36,0,650,Correct Rejection,0,1,N/A
ADMIN-UCSF-BS012,2018-03-18 16:09:50+00:00,2018-04-16 20:30:00+00:00,,Sustained,36,0,510,Correct Rejection,0,1,N/A
ADMIN-UCSF-BS012,2018-03-18 16:09:50+00:00,2018-04-16 20:30:00+00:00,,Impulsive,37,0,650,Correct Rejection,0,1,N/A
ADMIN-UCSF-BS012,2018-03-18 16:09:50+00:00,2018-04-16 20:30:00+00:00,,Sustained,37,0,510,Correct Rejection,0,1,N/A
ADMIN-UCSF-BS012,2018-03-18 16:09:50+00:00,2018-04-16 20:30:00+00:00,,Impulsive,38,442.38603115081787,650,Hit,1,1,0
ADMIN-UCSF-BS012,2018-03-18 16:09:50+00:00,2018-04-16 20:30:00+00:00,,Sustained,38,0,510,Correct Rejection,0,1,N/A
ADMIN-UCSF-BS012,2018-03-18 16:09:50+00:00,2018-04-16 20:30:00+00:00,,Impulsive,39,0,640,Correct Rejection,0,1,N/A
ADMIN-UCSF-BS012,2018-03-18 16:09:50+00:00,2018-04-16 20:30:00+00:00,,Sustained,39,336.9940519332886,510,Hit,1,1,0
ADMIN-UCSF-BS013,2018-03-18 16:33:30+00:00,2018-04-16 20:30:00+00:00,,Impulsive,0,389.16707038879395,600,Hit,1,1,0
ADMIN-UCSF-BS013,2018-03-18 16:33:30+00:00,2018-04-16 20:30:00+00:00,,Sustained,0,311.0860586166382,600,False Alarm,0,0,N/A
ADMIN-UCSF-BS013,2018-03-18 16:33:30+00:00,2018-04-16 20:30:00+00:00,,Impulsive,1,0,590,Correct Rejection,0,1,N/A
ADMIN-UCSF-BS013,2018-03-18 16:33:30+00:00,2018-04-16 20:30:00+00:00,,Sustained,1,283.6209535598755,640,Hit,1,1,0
ADMIN-UCSF-BS013,2018-03-18 16:33:30+00:00,2018-04-16 20:30:00+00:00,,Impulsive,2,0,590,Correct Rejection,0,1,N/A
ADMIN-UCSF-BS013,2018-03-18 16:33:30+00:00,2018-04-16 20:30:00+00:00,,Sustained,2,453.7498950958252,630,Hit,1,1,0
ADMIN-UCSF-BS013,2018-03-18 16:33:30+00:00,2018-04-16 20:30:00+00:00,,Impulsive,3,0,590,Correct Rejection,0,1,N/A
ADMIN-UCSF-BS013,2018-03-18 16:33:30+00:00,2018-04-16 20:30:00+00:00,,Sustained,3,551.2340068817139,620,Hit,1,1,0
ADMIN-UCSF-BS013,2018-03-18 16:33:30+00:00,2018-04-16 20:30:00+00:00,,Impulsive,4,0,590,Correct Rejection,0,1,N/A
ADMIN-UCSF-BS013,2018-03-18 16:33:30+00:00,2018-04-16 20:30:00+00:00,,Sustained,4,0,600,Correct Rejection,0,1,N/A
ADMIN-UCSF-BS013,2018-03-18 16:33:30+00:00,2018-04-16 20:30:00+00:00,,Impulsive,5,0,590,Correct Rejection,0,1,N/A
ADMIN-UCSF-BS013,2018-03-18 16:33:30+00:00,2018-04-16 20:30:00+00:00,,Sustained,5,317.4769878387451,600,Hit,1,1,0
ADMIN-UCSF-BS013,2018-03-18 16:33:30+00:00,2018-04-16 20:30:00+00:00,,Impulsive,6,346.70794010162354,590,Hit,1,1,0
ADMIN-UCSF-BS013,2018-03-18 16:33:30+00:00,2018-04-16 20:30:00+00:00,,Sustained,6,0,560,Correct Rejection,0,1,N/A
ADMIN-UCSF-BS013,2018-03-18 16:33:30+00:00,2018-04-16 20:30:00+00:00,,Impulsive,7,0,580,Correct Rejection,0,1,N/A
ADMIN-UCSF-BS013,2018-03-18 16:33:30+00:00,2018-04-16 20:30:00+00:00,,Sustained,7,291.9219732284546,560,Hit,1,1,0
ADMIN-UCSF-BS013,2018-03-18 16:33:30+00:00,2018-04-16 20:30:00+00:00,,Impulsive,8,0,580,Correct Rejection,0,1,N/A
ADMIN-UCSF-BS013,2018-03-18 16:33:30+00:00,2018-04-16 20:30:00+00:00,,Sustained,8,N/A,480,Miss,1,0,1
ADMIN-UCSF-BS013,2018-03-18 16:33:30+00:00,2018-04-16 20:30:00+00:00,,Impulsive,9,0,580,Correct Rejection,0,1,N/A
ADMIN-UCSF-BS013,2018-03-18 16:33:30+00:00,2018-04-16 20:30:00+00:00,,Sustained,9,508.49997997283936,520,Hit,1,1,0
ADMIN-UCSF-BS013,2018-03-18 16:33:30+00:00,2018-04-16 20:30:00+00:00,,Impulsive,10,0,580,Correct Rejection,0,1,N/A
ADMIN-UCSF-BS013,2018-03-18 16:33:30+00:00,2018-04-16 20:30:00+00:00,,Sustained,10,308.98797512054443,510,Hit,1,1,0
ADMIN-UCSF-BS013,2018-03-18 16:33:30+00:00,2018-04-16 20:30:00+00:00,,Impulsive,11,0,580,Correct Rejection,0,1,N/A
ADMIN-UCSF-BS013,2018-03-18 16:33:30+00:00,2018-04-16 20:30:00+00:00,,Sustained,11,0,500,Correct Rejection,0,1,N/A
ADMIN-UCSF-BS013,2018-03-18 16:33:30+00:00,2018-04-16 20:30:00+00:00,,Impulsive,12,0,580,Correct Rejection,0,1,N/A
ADMIN-UCSF-BS013,2018-03-18 16:33:30+00:00,2018-04-16 20:30:00+00:00,,Sustained,12,285.76505184173584,500,Hit,1,1,0
ADMIN-UCSF-BS013,2018-03-18 16:33:30+00:00,2018-04-16 20:30:00+00:00,,Impulsive,13,573.7329721450806,580,Hit,1,1,0
ADMIN-UCSF-BS013,2018-03-18 16:33:30+00:00,2018-04-16 20:30:00+00:00,,Sustained,13,318.9239501953125,480,Hit,1,1,0
ADMIN-UCSF-BS013,2018-03-18 16:33:30+00:00,2018-04-16 20:30:00+00:00,,Impulsive,14,0,560,Correct Rejection,0,1,N/A
ADMIN-UCSF-BS013,2018-03-18 16:33:30+00:00,2018-04-16 20:30:00+00:00,,Sustained,14,0,440,Correct Rejection,0,1,N/A
ADMIN-UCSF-BS013,2018-03-18 16:33:30+00:00,2018-04-16 20:30:00+00:00,,Impulsive,15,0,560,Correct Rejection,0,1,N/A
ADMIN-UCSF-BS013,2018-03-18 16:33:30+00:00,2018-04-16 20:30:00+00:00,,Sustained,15,278.8339853286743,440,Hit,1,1,0
ADMIN-UCSF-BS013,2018-03-18 16:33:30+00:00,2018-04-16 20:30:00+00:00,,Impulsive,16,0,560,Correct Rejection,0,1,N/A
ADMIN-UCSF-BS013,2018-03-18 16:33:30+00:00,2018-04-16 20:30:00+00:00,,Sustained,16,349.89190101623535,360,Hit,1,1,0
ADMIN-UCSF-BS013,2018-03-18 16:33:30+00:00,2018-04-16 20:30:00+00:00,,Impulsive,17,0,560,Correct Rejection,0,1,N/A
ADMIN-UCSF-BS013,2018-03-18 16:33:30+00:00,2018-04-16 20:30:00+00:00,,Sustained,17,0,200,Correct Rejection,0,1,N/A
ADMIN-UCSF-BS013,2018-03-18 16:33:30+00:00,2018-04-16 20:30:00+00:00,,Impulsive,18,0,560,Correct Rejection,0,1,N/A
ADMIN-UCSF-BS013,2018-03-18 16:33:30+00:00,2018-04-16 20:30:00+00:00,,Sustained,18,348.4649658203125,200,Miss,1,0,0
ADMIN-UCSF-BS013,2018-03-18 16:33:30+00:00,2018-04-16 20:30:00+00:00,,Impulsive,19,0,560,Correct Rejection,0,1,N/A
ADMIN-UCSF-BS013,2018-03-18 16:33:30+00:00,2018-04-16 20:30:00+00:00,,Sustained,19,323.6219882965088,240,Miss,1,0,0
ADMIN-UCSF-BS013,2018-03-18 16:33:30+00:00,2018-04-16 20:30:00+00:00,,Impulsive,20,0,560,Correct Rejection,0,1,N/A
ADMIN-UCSF-BS013,2018-03-18 16:33:30+00:00,2018-04-16 20:30:00+00:00,,Sustained,20,315.06800651550293,280,Miss,1,0,0
ADMIN-UCSF-BS013,2018-03-18 16:33:30+00:00,2018-04-16 20:30:00+00:00,,Impulsive,21,0,560,Correct Rejection,0,1,N/A
ADMIN-UCSF-BS013,2018-03-18 16:33:30+00:00,2018-04-16 20:30:00+00:00,,Sustained,21,349.64799880981445,360,Hit,1,1,0
ADMIN-UCSF-BS013,2018-03-18 16:33:30+00:00,2018-04-16 20:30:00+00:00,,Impulsive,22,484.01403427124023,560,Hit,1,1,0
ADMIN-UCSF-BS013,2018-03-18 16:33:30+00:00,2018-04-16 20:30:00+00:00,,Sustained,22,317.0710802078247,350,Hit,1,1,0
ADMIN-UCSF-BS013,2018-03-18 16:33:30+00:00,2018-04-16 20:30:00+00:00,,Impulsive,23,366.57798290252686,520,Hit,1,1,0
ADMIN-UCSF-BS013,2018-03-18 16:33:30+00:00,2018-04-16 20:30:00+00:00,,Sustained,23,0,340,Correct Rejection,0,1,N/A
ADMIN-UCSF-BS013,2018-03-18 16:33:30+00:00,2018-04-16 20:30:00+00:00,,Impulsive,24,307.99198150634766,440,Hit,1,1,0
ADMIN-UCSF-BS013,2018-03-18 16:33:30+00:00,2018-04-16 20:30:00+00:00,,Sustained,24,293.4749126434326,340,Hit,1,1,0
ADMIN-UCSF-BS013,2018-03-18 16:33:30+00:00,2018-04-16 20:30:00+00:00,,Impulsive,25,0,280,Correct Rejection,0,1,N/A
ADMIN-UCSF-BS013,2018-03-18 16:33:30+00:00,2018-04-16 20:30:00+00:00,,Sustained,25,0,320,Correct Rejection,0,1,N/A
ADMIN-UCSF-BS013,2018-03-18 16:33:30+00:00,2018-04-16 20:30:00+00:00,,Impulsive,26,0,280,Correct Rejection,0,1,N/A
ADMIN-UCSF-BS013,2018-03-18 16:33:30+00:00,2018-04-16 20:30:00+00:00,,Sustained,26,351.9960641860962,320,Miss,1,0,0
ADMIN-UCSF-BS013,2018-03-18 16:33:30+00:00,2018-04-16 20:30:00+00:00,,Impulsive,27,0,280,Correct Rejection,0,1,N/A
ADMIN-UCSF-BS013,2018-03-18 16:33:30+00:00,2018-04-16 20:30:00+00:00,,Sustained,27,418.76792907714844,360,Miss,1,0,0
ADMIN-UCSF-BS013,2018-03-18 16:33:30+00:00,2018-04-16 20:30:00+00:00,,Impulsive,28,532.168984413147,280,Miss,1,0,0
ADMIN-UCSF-BS013,2018-03-18 16:33:30+00:00,2018-04-16 20:30:00+00:00,,Sustained,28,0,400,Correct Rejection,0,1,N/A
ADMIN-UCSF-BS013,2018-03-18 16:33:30+00:00,2018-04-16 20:30:00+00:00,,Impulsive,29,0,320,Correct Rejection,0,1,N/A
ADMIN-UCSF-BS013,2018-03-18 16:33:30+00:00,2018-04-16 20:30:00+00:00,,Sustained,29,356.69100284576416,400,Hit,1,1,0
ADMIN-UCSF-BS013,2018-03-18 16:33:30+00:00,2018-04-16 20:30:00+00:00,,Impulsive,30,0,320,Correct Rejection,0,1,N/A
ADMIN-UCSF-BS013,2018-03-18 16:33:30+00:00,2018-04-16 20:30:00+00:00,,Sustained,30,344.2460298538208,390,Hit,1,1,0
ADMIN-UCSF-BS013,2018-03-18 16:33:30+00:00,2018-04-16 20:30:00+00:00,,Impulsive,31,0,320,Correct Rejection,0,1,N/A
ADMIN-UCSF-BS013,2018-03-18 16:33:30+00:00,2018-04-16 20:30:00+00:00,,Sustained,31,339.7259712219238,380,Hit,1,1,0
ADMIN-UCSF-BS013,2018-03-18 16:33:30+00:00,2018-04-16 20:30:00+00:00,,Impulsive,32,449.7530460357666,320,Miss,1,0,0
ADMIN-UCSF-BS013,2018-03-18 16:33:30+00:00,2018-04-16 20:30:00+00:00,,Sustained,32,243.75009536743164,360,Hit,1,1,0
ADMIN-UCSF-BS013,2018-03-18 16:33:30+00:00,2018-04-16 20:30:00+00:00,,Impulsive,33,535.3939533233643,360,Miss,1,0,0
ADMIN-UCSF-BS013,2018-03-18 16:33:30+00:00,2018-04-16 20:30:00+00:00,,Sustained,33,362.86401748657227,320,Miss,1,0,0
ADMIN-UCSF-BS013,2018-03-18 16:33:30+00:00,2018-04-16 20:30:00+00:00,,Impulsive,34,301.1600971221924,400,Hit,1,1,0
ADMIN-UCSF-BS013,2018-03-18 16:33:30+00:00,2018-04-16 20:30:00+00:00,,Sustained,34,280.82096576690674,360,Hit,1,1,0
ADMIN-UCSF-BS013,2018-03-18 16:33:30+00:00,2018-04-16 20:30:00+00:00,,Impulsive,35,307.0019483566284,390,Hit,1,1,0
ADMIN-UCSF-BS013,2018-03-18 16:33:30+00:00,2018-04-16 20:30:00+00:00,,Sustained,35,0,350,Correct Rejection,0,1,N/A
ADMIN-UCSF-BS013,2018-03-18 16:33:30+00:00,2018-04-16 20:30:00+00:00,,Impulsive,36,0,380,Correct Rejection,0,1,N/A
ADMIN-UCSF-BS013,2018-03-18 16:33:30+00:00,2018-04-16 20:30:00+00:00,,Sustained,36,0,350,Correct Rejection,0,1,N/A
ADMIN-UCSF-BS013,2018-03-18 16:33:30+00:00,2018-04-16 20:30:00+00:00,,Impulsive,37,360.2210283279419,380,Hit,1,1,0
ADMIN-UCSF-BS013,2018-03-18 16:33:30+00:00,2018-04-16 20:30:00+00:00,,Sustained,37,327.7850151062012,350,Hit,1,1,0
ADMIN-UCSF-BS013,2018-03-18 16:33:30+00:00,2018-04-16 20:30:00+00:00,,Impulsive,38,0,360,Correct Rejection,0,1,N/A
ADMIN-UCSF-BS013,2018-03-18 16:33:30+00:00,2018-04-16 20:30:00+00:00,,Sustained,38,472.1410274505615,340,Miss,1,0,0
ADMIN-UCSF-BS013,2018-03-18 16:33:30+00:00,2018-04-16 20:30:00+00:00,,Impulsive,39,0,360,Correct Rejection,0,1,N/A
ADMIN-UCSF-BS013,2018-03-18 16:33:30+00:00,2018-04-16 20:30:00+00:00,,Sustained,39,0,380,Correct Rejection,0,1,N/A
ADMIN-UCSF-BS010,2018-03-23 20:09:24+00:00,2018-04-16 20:30:00+00:00,,Impulsive,0,0,600,Correct Rejection,0,1,N/A
ADMIN-UCSF-BS010,2018-03-23 20:09:24+00:00,2018-04-16 20:30:00+00:00,,Sustained,0,320.0420141220093,600,Hit,1,1,0
ADMIN-UCSF-BS010,2018-03-23 20:09:24+00:00,2018-04-16 20:30:00+00:00,,Impulsive,1,0,600,Correct Rejection,0,1,N/A
ADMIN-UCSF-BS010,2018-03-23 20:09:24+00:00,2018-04-16 20:30:00+00:00,,Sustained,1,352.6129722595215,590,Hit,1,1,0
ADMIN-UCSF-BS010,2018-03-23 20:09:24+00:00,2018-04-16 20:30:00+00:00,,Impulsive,2,0,600,Correct Rejection,0,1,N/A
ADMIN-UCSF-BS010,2018-03-23 20:09:24+00:00,2018-04-16 20:30:00+00:00,,Sustained,2,0,580,Correct Rejection,0,1,N/A
ADMIN-UCSF-BS010,2018-03-23 20:09:24+00:00,2018-04-16 20:30:00+00:00,,Impulsive,3,0,600,Correct Rejection,0,1,N/A
ADMIN-UCSF-BS010,2018-03-23 20:09:24+00:00,2018-04-16 20:30:00+00:00,,Sustained,3,328.58097553253174,580,Hit,1,1,0
ADMIN-UCSF-BS010,2018-03-23 20:09:24+00:00,2018-04-16 20:30:00+00:00,,Impulsive,4,0,600,Correct Rejection,0,1,N/A
ADMIN-UCSF-BS010,2018-03-23 20:09:24+00:00,2018-04-16 20:30:00+00:00,,Sustained,4,409.25300121307373,560,Hit,1,1,0
ADMIN-UCSF-BS010,2018-03-23 20:09:24+00:00,2018-04-16 20:30:00+00:00,,Impulsive,5,422.59299755096436,600,Hit,1,1,0
ADMIN-UCSF-BS010,2018-03-23 20:09:24+00:00,2018-04-16 20:30:00+00:00,,Sustained,5,319.3550109863281,520,Hit,1,1,0
ADMIN-UCSF-BS010,2018-03-23 20:09:24+00:00,2018-04-16 20:30:00+00:00,,Impulsive,6,0,590,Correct Rejection,0,1,N/A
ADMIN-UCSF-BS010,2018-03-23 20:09:24+00:00,2018-04-16 20:30:00+00:00,,Sustained,6,0,440,Correct Rejection,0,1,N/A
ADMIN-UCSF-BS010,2018-03-23 20:09:24+00:00,2018-04-16 20:30:00+00:00,,Impulsive,7,0,590,Correct Rejection,0,1,N/A
ADMIN-UCSF-BS010,2018-03-23 20:09:24+00:00,2018-04-16 20:30:00+00:00,,Sustained,7,0,440,Correct Rejection,0,1,N/A
ADMIN-UCSF-BS010,2018-03-23 20:09:24+00:00,2018-04-16 20:30:00+00:00,,Impulsive,8,0,590,Correct Rejection,0,1,N/A
ADMIN-UCSF-BS010,2018-03-23 20:09:24+00:00,2018-04-16 20:30:00+00:00,,Sustained,8,374.9890327453613,440,Hit,1,1,0
ADMIN-UCSF-BS010,2018-03-23 20:09:24+00:00,2018-04-16 20:30:00+00:00,,Impulsive,9,325.02901554107666,590,Hit,1,1,0
ADMIN-UCSF-BS010,2018-03-23 20:09:24+00:00,2018-04-16 20:30:00+00:00,,Sustained,9,394.1730260848999,280,Miss,1,0,0
ADMIN-UCSF-BS010,2018-03-23 20:09:24+00:00,2018-04-16 20:30:00+00:00,,Impulsive,10,0,580,Correct Rejection,0,1,N/A
ADMIN-UCSF-BS010,2018-03-23 20:09:24+00:00,2018-04-16 20:30:00+00:00,,Sustained,10,401.47197246551514,320,Miss,1,0,0
ADMIN-UCSF-BS010,2018-03-23 20:09:24+00:00,2018-04-16 20:30:00+00:00,,Impulsive,11,0,580,Correct Rejection,0,1,N/A
ADMIN-UCSF-BS010,2018-03-23 20:09:24+00:00,2018-04-16 20:30:00+00:00,,Sustained,11,0,360,Correct Rejection,0,1,N/A
ADMIN-UCSF-BS010,2018-03-23 20:09:24+00:00,2018-04-16 20:30:00+00:00,,Impulsive,12,0,580,Correct Rejection,0,1,N/A
ADMIN-UCSF-BS010,2018-03-23 20:09:24+00:00,2018-04-16 20:30:00+00:00,,Sustained,12,485.1999282836914,360,Miss,1,0,0
ADMIN-UCSF-BS010,2018-03-23 20:09:24+00:00,2018-04-16 20:30:00+00:00,,Impulsive,13,0,580,Correct Rejection,0,1,N/A
ADMIN-UCSF-BS010,2018-03-23 20:09:24+00:00,2018-04-16 20:30:00+00:00,,Sustained,13,419.83795166015625,400,Miss,1,0,0
ADMIN-UCSF-BS010,2018-03-23 20:09:24+00:00,2018-04-16 20:30:00+00:00,,Impulsive,14,381.69193267822266,580,Hit,1,1,0
ADMIN-UCSF-BS010,2018-03-23 20:09:24+00:00,2018-04-16 20:30:00+00:00,,Sustained,14,375.9000301361084,440,Hit,1,1,0
ADMIN-UCSF-BS010,2018-03-23 20:09:24+00:00,2018-04-16 20:30:00+00:00,,Impulsive,15,0,560,Correct Rejection,0,1,N/A
ADMIN-UCSF-BS010,2018-03-23 20:09:24+00:00,2018-04-16 20:30:00+00:00,,Sustained,15,0,430,Correct Rejection,0,1,N/A
ADMIN-UCSF-BS010,2018-03-23 20:09:24+00:00,2018-04-16 20:30:00+00:00,,Impulsive,16,0,560,Correct Rejection,0,1,N/A
ADMIN-UCSF-BS010,2018-03-23 20:09:24+00:00,2018-04-16 20:30:00+00:00,,Sustained,16,0,430,Correct Rejection,0,1,N/A
ADMIN-UCSF-BS010,2018-03-23 20:09:24+00:00,2018-04-16 20:30:00+00:00,,Impulsive,17,0,560,Correct Rejection,0,1,N/A
ADMIN-UCSF-BS010,2018-03-23 20:09:24+00:00,2018-04-16 20:30:00+00:00,,Sustained,17,293.91396045684814,430,Hit,1,1,0
ADMIN-UCSF-BS010,2018-03-23 20:09:24+00:00,2018-04-16 20:30:00+00:00,,Impulsive,18,306.3880205154419,560,Hit,1,1,0
ADMIN-UCSF-BS010,2018-03-23 20:09:24+00:00,2018-04-16 20:30:00+00:00,,Sustained,18,347.2709655761719,420,Hit,1,1,0
ADMIN-UCSF-BS010,2018-03-23 20:09:24+00:00,2018-04-16 20:30:00+00:00,,Impulsive,19,0,520,Correct Rejection,0,1,N/A
ADMIN-UCSF-BS010,2018-03-23 20:09:24+00:00,2018-04-16 20:30:00+00:00,,Sustained,19,256.53600692749023,400,Hit,1,1,0
ADMIN-UCSF-BS010,2018-03-23 20:09:24+00:00,2018-04-16 20:30:00+00:00,,Impulsive,20,282.0349931716919,520,Hit,1,1,0
ADMIN-UCSF-BS010,2018-03-23 20:09:24+00:00,2018-04-16 20:30:00+00:00,,Sustained,20,0,360,Correct Rejection,0,1,N/A
ADMIN-UCSF-BS010,2018-03-23 20:09:24+00:00,2018-04-16 20:30:00+00:00,,Impulsive,21,0,440,Correct Rejection,0,1,N/A
ADMIN-UCSF-BS010,2018-03-23 20:09:24+00:00,2018-04-16 20:30:00+00:00,,Sustained,21,353.8188934326172,360,Hit,1,1,0
ADMIN-UCSF-BS010,2018-03-23 20:09:24+00:00,2018-04-16 20:30:00+00:00,,Impulsive,22,0,440,Correct Rejection,0,1,N/A
ADMIN-UCSF-BS010,2018-03-23 20:09:24+00:00,2018-04-16 20:30:00+00:00,,Sustained,22,348.47700595855713,280,Miss,1,0,0
ADMIN-UCSF-BS010,2018-03-23 20:09:24+00:00,2018-04-16 20:30:00+00:00,,Impulsive,23,0,440,Correct Rejection,0,1,N/A
ADMIN-UCSF-BS010,2018-03-23 20:09:24+00:00,2018-04-16 20:30:00+00:00,,Sustained,23,364.6050691604614,320,Miss,1,0,0
ADMIN-UCSF-BS010,2018-03-23 20:09:24+00:00,2018-04-16 20:30:00+00:00,,Impulsive,24,0,440,Correct Rejection,0,1,N/A
ADMIN-UCSF-BS010,2018-03-23 20:09:24+00:00,2018-04-16 20:30:00+00:00,,Sustained,24,0,360,Correct Rejection,0,1,N/A
ADMIN-UCSF-BS010,2018-03-23 20:09:24+00:00,2018-04-16 20:30:00+00:00,,Impulsive,25,0,440,Correct Rejection,0,1,N/A
ADMIN-UCSF-BS010,2018-03-23 20:09:24+00:00,2018-04-16 20:30:00+00:00,,Sustained,25,0,360,Correct Rejection,0,1,N/A
ADMIN-UCSF-BS010,2018-03-23 20:09:24+00:00,2018-04-16 20:30:00+00:00,,Impulsive,26,0,440,Correct Rejection,0,1,N/A
ADMIN-UCSF-BS010,2018-03-23 20:09:24+00:00,2018-04-16 20:30:00+00:00,,Sustained,26,265.02394676208496,360,Hit,1,1,0
ADMIN-UCSF-BS010,2018-03-23 20:09:24+00:00,2018-04-16 20:30:00+00:00,,Impulsive,27,324.6450424194336,440,Hit,1,1,0
ADMIN-UCSF-BS010,2018-03-23 20:09:24+00:00,2018-04-16 20:30:00+00:00,,Sustained,27,270.35200595855713,350,Hit,1,1,0
ADMIN-UCSF-BS010,2018-03-23 20:09:24+00:00,2018-04-16 20:30:00+00:00,,Impulsive,28,0,280,Correct Rejection,0,1,N/A
ADMIN-UCSF-BS010,2018-03-23 20:09:24+00:00,2018-04-16 20:30:00+00:00,,Sustained,28,278.9499759674072,340,Hit,1,1,0
ADMIN-UCSF-BS010,2018-03-23 20:09:24+00:00,2018-04-16 20:30:00+00:00,,Impulsive,29,394.07098293304443,280,Miss,1,0,0
ADMIN-UCSF-BS010,2018-03-23 20:09:24+00:00,2018-04-16 20:30:00+00:00,,Sustained,29,287.4540090560913,320,Hit,1,1,0
ADMIN-UCSF-BS010,2018-03-23 20:09:24+00:00,2018-04-16 20:30:00+00:00,,Impulsive,30,0,320,Correct Rejection,0,1,N/A
ADMIN-UCSF-BS010,2018-03-23 20:09:24+00:00,2018-04-16 20:30:00+00:00,,Sustained,30,319.40603256225586,280,Miss,1,0,0
ADMIN-UCSF-BS010,2018-03-23 20:09:24+00:00,2018-04-16 20:30:00+00:00,,Impulsive,31,362.2610569000244,320,Miss,1,0,0
ADMIN-UCSF-BS010,2018-03-23 20:09:24+00:00,2018-04-16 20:30:00+00:00,,Sustained,31,305.8969974517822,320,False Alarm,0,0,N/A
ADMIN-UCSF-BS010,2018-03-23 20:09:24+00:00,2018-04-16 20:30:00+00:00,,Impulsive,32,0,360,Correct Rejection,0,1,N/A
ADMIN-UCSF-BS010,2018-03-23 20:09:24+00:00,2018-04-16 20:30:00+00:00,,Sustained,32,385.9410285949707,360,Miss,1,0,0
ADMIN-UCSF-BS010,2018-03-23 20:09:24+00:00,2018-04-16 20:30:00+00:00,,Impulsive,33,356.6089868545532,360,Hit,1,1,0
ADMIN-UCSF-BS010,2018-03-23 20:09:24+00:00,2018-04-16 20:30:00+00:00,,Sustained,33,295.3500747680664,440,Hit,1,1,0
ADMIN-UCSF-BS010,2018-03-23 20:09:24+00:00,2018-04-16 20:30:00+00:00,,Impulsive,34,330.8950662612915,350,Hit,1,1,0
ADMIN-UCSF-BS010,2018-03-23 20:09:24+00:00,2018-04-16 20:30:00+00:00,,Sustained,34,303.6210536956787,430,Hit,1,1,0
ADMIN-UCSF-BS010,2018-03-23 20:09:24+00:00,2018-04-16 20:30:00+00:00,,Impulsive,35,362.98906803131104,340,Miss,1,0,0
ADMIN-UCSF-BS010,2018-03-23 20:09:24+00:00,2018-04-16 20:30:00+00:00,,Sustained,35,0,420,Correct Rejection,0,1,N/A
ADMIN-UCSF-BS010,2018-03-23 20:09:24+00:00,2018-04-16 20:30:00+00:00,,Impulsive,36,326.56002044677734,380,False Alarm,0,0,N/A
ADMIN-UCSF-BS010,2018-03-23 20:09:24+00:00,2018-04-16 20:30:00+00:00,,Sustained,36,293.0840253829956,420,Hit,1,1,0
ADMIN-UCSF-BS010,2018-03-23 20:09:24+00:00,2018-04-16 20:30:00+00:00,,Impulsive,37,0,420,Correct Rejection,0,1,N/A
ADMIN-UCSF-BS010,2018-03-23 20:09:24+00:00,2018-04-16 20:30:00+00:00,,Sustained,37,343.5620069503784,400,Hit,1,1,0
ADMIN-UCSF-BS010,2018-03-23 20:09:24+00:00,2018-04-16 20:30:00+00:00,,Impulsive,38,0,420,Correct Rejection,0,1,N/A
ADMIN-UCSF-BS010,2018-03-23 20:09:24+00:00,2018-04-16 20:30:00+00:00,,Sustained,38,318.24398040771484,360,Hit,1,1,0
ADMIN-UCSF-BS010,2018-03-23 20:09:24+00:00,2018-04-16 20:30:00+00:00,,Impulsive,39,358.75797271728516,420,Hit,1,1,0
ADMIN-UCSF-BS010,2018-03-23 20:09:24+00:00,2018-04-16 20:30:00+00:00,,Sustained,39,0,280,Correct Rejection,0,1,N/A
