participant_id,time_gameplayed_utc,time_sent_utc,detail,condition,trial_number,position_is_top,correct_button,response_window,late_response,response_time
ADMIN-UCSF-BS002,2017-12-08 21:18:13+00:00,2017-12-12 17:39:05+00:00,,Conjunction_12,0,1,0,1000,1,1506.6959857940674
ADMIN-UCSF-BS002,2017-12-08 21:18:13+00:00,2017-12-12 17:39:05+00:00,,Conjunction_4,0,1,1,1000,0,760.595977306366
ADMIN-UCSF-BS002,2017-12-08 21:18:13+00:00,2017-12-12 17:39:05+00:00,,Feature_12,0,0,1,1000,0,866.9340014457703
ADMIN-UCSF-BS002,2017-12-08 21:18:13+00:00,2017-12-12 17:39:05+00:00,,Feature_4,0,1,1,1000,0,587.6249670982361
ADMIN-UCSF-BS002,2017-12-08 21:18:13+00:00,2017-12-12 17:39:05+00:00,,Conjunction_12,1,1,0,1040,1,1230.7980060577393
ADMIN-UCSF-BS002,2017-12-08 21:18:13+00:00,2017-12-12 17:39:05+00:00,,Conjunction_4,1,0,1,990,0,948.0710029602051
ADMIN-UCSF-BS002,2017-12-08 21:18:13+00:00,2017-12-12 17:39:05+00:00,,Feature_12,1,0,1,990,0,827.1860480308533
ADMIN-UCSF-BS002,2017-12-08 21:18:13+00:00,2017-12-12 17:39:05+00:00,,Feature_4,1,0,1,990,0,545.1310276985168
ADMIN-UCSF-BS002,2017-12-08 21:18:13+00:00,2017-12-12 17:39:05+00:00,,Conjunction_12,2,1,1,1080,0,945.3229904174805
ADMIN-UCSF-BS002,2017-12-08 21:18:13+00:00,2017-12-12 17:39:05+00:00,,Conjunction_4,2,1,1,980,0,699.9689936637878
ADMIN-UCSF-BS002,2017-12-08 21:18:13+00:00,2017-12-12 17:39:05+00:00,,Feature_12,2,0,1,980,0,597.4739789962769
ADMIN-UCSF-BS002,2017-12-08 21:18:13+00:00,2017-12-12 17:39:05+00:00,,Feature_4,2,1,1,980,0,569.9970126152039
ADMIN-UCSF-BS002,2017-12-08 21:18:13+00:00,2017-12-12 17:39:05+00:00,,Conjunction_12,3,0,0,1070,1,1330.0209641456604
ADMIN-UCSF-BS002,2017-12-08 21:18:13+00:00,2017-12-12 17:39:05+00:00,,Conjunction_4,3,0,1,960,0,682.8019618988037
ADMIN-UCSF-BS002,2017-12-08 21:18:13+00:00,2017-12-12 17:39:05+00:00,,Feature_12,3,1,1,960,0,559.1209530830383
ADMIN-UCSF-BS002,2017-12-08 21:18:13+00:00,2017-12-12 17:39:05+00:00,,Feature_4,3,0,1,960,0,560.4960322380066
ADMIN-UCSF-BS002,2017-12-08 21:18:13+00:00,2017-12-12 17:39:05+00:00,,Conjunction_12,4,0,0,1110,1,1156.6070318222046
ADMIN-UCSF-BS002,2017-12-08 21:18:13+00:00,2017-12-12 17:39:05+00:00,,Conjunction_4,4,1,1,920,0,714.8309946060181
ADMIN-UCSF-BS002,2017-12-08 21:18:13+00:00,2017-12-12 17:39:05+00:00,,Feature_12,4,0,1,920,0,802.7089834213257
ADMIN-UCSF-BS002,2017-12-08 21:18:13+00:00,2017-12-12 17:39:05+00:00,,Feature_4,4,0,1,920,0,692.2850012779236
ADMIN-UCSF-BS002,2017-12-08 21:18:13+00:00,2017-12-12 17:39:05+00:00,,Conjunction_12,5,1,1,1150,0,849.8709797859192
ADMIN-UCSF-BS002,2017-12-08 21:18:13+00:00,2017-12-12 17:39:05+00:00,,Conjunction_4,5,0,0,840,1,885.9689831733704
ADMIN-UCSF-BS002,2017-12-08 21:18:13+00:00,2017-12-12 17:39:05+00:00,,Feature_12,5,0,1,840,0,692.1809911727905
ADMIN-UCSF-BS002,2017-12-08 21:18:13+00:00,2017-12-12 17:39:05+00:00,,Feature_4,5,1,1,840,0,494.966983795166
ADMIN-UCSF-BS002,2017-12-08 21:18:13+00:00,2017-12-12 17:39:05+00:00,,Conjunction_12,6,0,1,1140,0,719.3819880485535
ADMIN-UCSF-BS002,2017-12-08 21:18:13+00:00,2017-12-12 17:39:05+00:00,,Conjunction_4,6,0,0,880,1,929.8239946365356
ADMIN-UCSF-BS002,2017-12-08 21:18:13+00:00,2017-12-12 17:39:05+00:00,,Feature_12,6,1,1,680,0,544.7779893875122
ADMIN-UCSF-BS002,2017-12-08 21:18:13+00:00,2017-12-12 17:39:05+00:00,,Feature_4,6,0,1,680,0,677.9020428657532
ADMIN-UCSF-BS002,2017-12-08 21:18:13+00:00,2017-12-12 17:39:05+00:00,,Conjunction_12,7,1,1,1130,0,642.8869962692261
ADMIN-UCSF-BS002,2017-12-08 21:18:13+00:00,2017-12-12 17:39:05+00:00,,Conjunction_4,7,1,1,920,0,758.1179738044739
ADMIN-UCSF-BS002,2017-12-08 21:18:13+00:00,2017-12-12 17:39:05+00:00,,Feature_12,7,1,0,360,1,728.9049625396729
ADMIN-UCSF-BS002,2017-12-08 21:18:13+00:00,2017-12-12 17:39:05+00:00,,Feature_4,7,0,0,360,1,784.0529680252075
ADMIN-UCSF-BS002,2017-12-08 21:18:13+00:00,2017-12-12 17:39:05+00:00,,Conjunction_12,8,1,0,1110,1,1221.5279936790466
ADMIN-UCSF-BS002,2017-12-08 21:18:13+00:00,2017-12-12 17:39:05+00:00,,Conjunction_4,8,0,1,910,0,649.8169898986816
ADMIN-UCSF-BS002,2017-12-08 21:18:13+00:00,2017-12-12 17:39:05+00:00,,Feature_12,8,1,0,400,1,669.0959930419922
ADMIN-UCSF-BS002,2017-12-08 21:18:13+00:00,2017-12-12 17:39:05+00:00,,Feature_4,8,0,0,400,1,752.2040009498596
ADMIN-UCSF-BS002,2017-12-08 21:18:13+00:00,2017-12-12 17:39:05+00:00,,Conjunction_12,9,0,0,1150,1,1390.5779719352722
ADMIN-UCSF-BS002,2017-12-08 21:18:13+00:00,2017-12-12 17:39:05+00:00,,Conjunction_4,9,0,1,900,0,755.0939917564392
ADMIN-UCSF-BS002,2017-12-08 21:18:13+00:00,2017-12-12 17:39:05+00:00,,Feature_12,9,0,0,440,1,548.1600165367126
ADMIN-UCSF-BS002,2017-12-08 21:18:13+00:00,2017-12-12 17:39:05+00:00,,Feature_4,9,1,1,440,0,435.7759952545166
ADMIN-UCSF-BS002,2017-12-08 21:18:13+00:00,2017-12-12 17:39:05+00:00,,Conjunction_12,10,1,1,1190,0,1039.9380326271057
ADMIN-UCSF-BS002,2017-12-08 21:18:13+00:00,2017-12-12 17:39:05+00:00,,Conjunction_4,10,1,1,880,0,756.6189765930176
ADMIN-UCSF-BS002,2017-12-08 21:18:13+00:00,2017-12-12 17:39:05+00:00,,Feature_12,10,1,1,520,0,487.8399968147278
ADMIN-UCSF-BS002,2017-12-08 21:18:13+00:00,2017-12-12 17:39:05+00:00,,Feature_4,10,0,0,430,1,531.8560004234314
ADMIN-UCSF-BS002,2017-12-08 21:18:13+00:00,2017-12-12 17:39:05+00:00,,Conjunction_12,11,0,1,1180,0,706.7130208015442
ADMIN-UCSF-BS002,2017-12-08 21:18:13+00:00,2017-12-12 17:39:05+00:00,,Conjunction_4,11,0,1,840,0,679.6039938926697
ADMIN-UCSF-BS002,2017-12-08 21:18:13+00:00,2017-12-12 17:39:05+00:00,,Feature_12,11,0,1,510,0,418.5839891433716
ADMIN-UCSF-BS002,2017-12-08 21:18:13+00:00,2017-12-12 17:39:05+00:00,,Feature_4,11,1,0,470,1,1053.6640286445618
ADMIN-UCSF-BS002,2017-12-08 21:18:13+00:00,2017-12-12 17:39:05+00:00,,Conjunction_12,12,0,0,1170,1,1446.8650221824646
ADMIN-UCSF-BS002,2017-12-08 21:18:13+00:00,2017-12-12 17:39:05+00:00,,Conjunction_4,12,0,1,760,0,631.3430070877075
ADMIN-UCSF-BS002,2017-12-08 21:18:13+00:00,2017-12-12 17:39:05+00:00,,Feature_12,12,1,1,500,0,468.52898597717285
ADMIN-UCSF-BS002,2017-12-08 21:18:13+00:00,2017-12-12 17:39:05+00:00,,Feature_4,12,1,0,510,0,451.308012008667
ADMIN-UCSF-BS002,2017-12-08 21:18:13+00:00,2017-12-12 17:39:05+00:00,,Conjunction_12,13,0,1,1210,0,912.1260046958923
ADMIN-UCSF-BS002,2017-12-08 21:18:13+00:00,2017-12-12 17:39:05+00:00,,Conjunction_4,13,0,0,600,1,619.3009614944458
ADMIN-UCSF-BS002,2017-12-08 21:18:13+00:00,2017-12-12 17:39:05+00:00,,Feature_12,13,1,0,480,1,593.0820107460022
ADMIN-UCSF-BS002,2017-12-08 21:18:13+00:00,2017-12-12 17:39:05+00:00,,Feature_4,13,1,1,590,0,515.3080224990845
ADMIN-UCSF-BS002,2017-12-08 21:18:13+00:00,2017-12-12 17:39:05+00:00,,Conjunction_12,14,1,0,1200,0,907.4829816818237
ADMIN-UCSF-BS002,2017-12-08 21:18:13+00:00,2017-12-12 17:39:05+00:00,,Conjunction_4,14,1,0,640,1,692.4200057983398
ADMIN-UCSF-BS002,2017-12-08 21:18:13+00:00,2017-12-12 17:39:05+00:00,,Feature_12,14,1,0,520,1,602.1789908409119
ADMIN-UCSF-BS002,2017-12-08 21:18:13+00:00,2017-12-12 17:39:05+00:00,,Feature_4,14,0,1,580,0,491.0150170326233
ADMIN-UCSF-BS002,2017-12-08 21:18:13+00:00,2017-12-12 17:39:05+00:00,,Conjunction_12,15,1,0,1240,0,1123.4310269355774
ADMIN-UCSF-BS002,2017-12-08 21:18:13+00:00,2017-12-12 17:39:05+00:00,,Conjunction_4,15,1,1,680,0,555.6470155715942
ADMIN-UCSF-BS002,2017-12-08 21:18:13+00:00,2017-12-12 17:39:05+00:00,,Feature_12,15,0,0,560,1,596.3299870491028
ADMIN-UCSF-BS002,2017-12-08 21:18:13+00:00,2017-12-12 17:39:05+00:00,,Feature_4,15,1,1,570,0,494.720995426178
ADMIN-UCSF-BS002,2017-12-08 21:18:13+00:00,2017-12-12 17:39:05+00:00,,Conjunction_12,16,1,1,1280,0,831.3109874725342
ADMIN-UCSF-BS002,2017-12-08 21:18:13+00:00,2017-12-12 17:39:05+00:00,,Conjunction_4,16,1,1,670,0,621.159017086029
ADMIN-UCSF-BS002,2017-12-08 21:18:13+00:00,2017-12-12 17:39:05+00:00,,Feature_12,16,0,1,640,0,593.3850407600403
ADMIN-UCSF-BS002,2017-12-08 21:18:13+00:00,2017-12-12 17:39:05+00:00,,Feature_4,16,1,0,550,1,657.2980284690857
ADMIN-UCSF-BS002,2017-12-08 21:18:13+00:00,2017-12-12 17:39:05+00:00,,Conjunction_12,17,0,1,1270,0,761.1719965934753
ADMIN-UCSF-BS002,2017-12-08 21:18:13+00:00,2017-12-12 17:39:05+00:00,,Conjunction_4,17,1,0,660,1,1472.9639887809753
ADMIN-UCSF-BS002,2017-12-08 21:18:13+00:00,2017-12-12 17:39:05+00:00,,Feature_12,17,0,0,630,0,484.3219518661499
ADMIN-UCSF-BS002,2017-12-08 21:18:13+00:00,2017-12-12 17:39:05+00:00,,Feature_4,17,0,0,590,1,652.4029970169067
ADMIN-UCSF-BS002,2017-12-08 21:18:13+00:00,2017-12-12 17:39:05+00:00,,Conjunction_12,18,0,0,1260,1,N/A
ADMIN-UCSF-BS002,2017-12-08 21:18:13+00:00,2017-12-12 17:39:05+00:00,,Conjunction_4,18,0,0,700,1,747.1849918365479
ADMIN-UCSF-BS002,2017-12-08 21:18:13+00:00,2017-12-12 17:39:05+00:00,,Feature_12,18,1,1,670,0,652.8780460357666
ADMIN-UCSF-BS002,2017-12-08 21:18:13+00:00,2017-12-12 17:39:05+00:00,,Feature_4,18,0,0,630,0,517.8679823875427
ADMIN-UCSF-BS002,2017-12-08 21:18:13+00:00,2017-12-12 17:39:05+00:00,,Conjunction_12,19,1,0,1300,0,745.5509901046753
ADMIN-UCSF-BS002,2017-12-08 21:18:13+00:00,2017-12-12 17:39:05+00:00,,Conjunction_4,19,0,0,740,1,968.3400392532349
ADMIN-UCSF-BS002,2017-12-08 21:18:13+00:00,2017-12-12 17:39:05+00:00,,Feature_12,19,0,1,660,0,596.7360138893127
ADMIN-UCSF-BS002,2017-12-08 21:18:13+00:00,2017-12-12 17:39:05+00:00,,Feature_4,19,1,1,710,0,518.3510184288025
ADMIN-UCSF-BS002,2017-12-08 21:18:13+00:00,2017-12-12 17:39:05+00:00,,Conjunction_12,20,1,1,1340,0,1136.6280317306519
ADMIN-UCSF-BS002,2017-12-08 21:18:13+00:00,2017-12-12 17:39:05+00:00,,Conjunction_4,20,1,1,820,0,756.0330033302307
ADMIN-UCSF-BS002,2017-12-08 21:18:13+00:00,2017-12-12 17:39:05+00:00,,Feature_12,20,1,1,650,0,441.90001487731934
ADMIN-UCSF-BS002,2017-12-08 21:18:13+00:00,2017-12-12 17:39:05+00:00,,Feature_4,20,0,1,700,0,450.6910443305969
ADMIN-UCSF-BS002,2017-12-08 21:18:13+00:00,2017-12-12 17:39:05+00:00,,Conjunction_12,21,1,0,1330,1,1338.0030393600464
ADMIN-UCSF-BS002,2017-12-08 21:18:13+00:00,2017-12-12 17:39:05+00:00,,Conjunction_4,21,1,0,810,0,538.0600094795227
ADMIN-UCSF-BS002,2017-12-08 21:18:13+00:00,2017-12-12 17:39:05+00:00,,Feature_12,21,1,1,630,0,519.0669894218445
ADMIN-UCSF-BS002,2017-12-08 21:18:13+00:00,2017-12-12 17:39:05+00:00,,Feature_4,21,0,1,690,0,590.5460119247437
ADMIN-UCSF-BS002,2017-12-08 21:18:13+00:00,2017-12-12 17:39:05+00:00,,Conjunction_12,22,0,0,1370,0,1016.9099569320679
ADMIN-UCSF-BS002,2017-12-08 21:18:13+00:00,2017-12-12 17:39:05+00:00,,Conjunction_4,22,0,0,850,1,1099.34800863266
ADMIN-UCSF-BS002,2017-12-08 21:18:13+00:00,2017-12-12 17:39:05+00:00,,Feature_12,22,1,1,590,0,543.3000326156616
ADMIN-UCSF-BS002,2017-12-08 21:18:13+00:00,2017-12-12 17:39:05+00:00,,Feature_4,22,1,1,670,0,527.1790027618408
ADMIN-UCSF-BS002,2017-12-08 21:18:13+00:00,2017-12-12 17:39:05+00:00,,Conjunction_12,23,0,1,1410,0,452.32802629470825
ADMIN-UCSF-BS002,2017-12-08 21:18:13+00:00,2017-12-12 17:39:05+00:00,,Conjunction_4,23,1,0,890,1,933.6990118026733
ADMIN-UCSF-BS002,2017-12-08 21:18:13+00:00,2017-12-12 17:39:05+00:00,,Feature_12,23,0,1,510,0,425.1100420951843
ADMIN-UCSF-BS002,2017-12-08 21:18:13+00:00,2017-12-12 17:39:05+00:00,,Feature_4,23,1,0,630,1,707.4829936027527
ADMIN-UCSF-BS002,2017-12-08 21:18:13+00:00,2017-12-12 17:39:05+00:00,,Conjunction_12,24,0,0,1400,0,945.6200003623962
ADMIN-UCSF-BS002,2017-12-08 21:18:13+00:00,2017-12-12 17:39:05+00:00,,Conjunction_4,24,1,1,970,0,695.5540180206299
ADMIN-UCSF-BS002,2017-12-08 21:18:13+00:00,2017-12-12 17:39:05+00:00,,Feature_12,24,1,0,350,1,538.7080311775208
ADMIN-UCSF-BS002,2017-12-08 21:18:13+00:00,2017-12-12 17:39:05+00:00,,Feature_4,24,1,1,670,0,646.49897813797
ADMIN-UCSF-BS004,2017-12-08 21:42:00+00:00,2017-12-12 17:39:05+00:00,,Conjunction_12,0,1,0,1000,1,N/A
ADMIN-UCSF-BS004,2017-12-08 21:42:00+00:00,2017-12-12 17:39:05+00:00,,Conjunction_4,0,0,0,1000,1,1201.3899683952332
ADMIN-UCSF-BS004,2017-12-08 21:42:00+00:00,2017-12-12 17:39:05+00:00,,Feature_12,0,0,0,1000,0,263.65000009536743
ADMIN-UCSF-BS004,2017-12-08 21:42:00+00:00,2017-12-12 17:39:05+00:00,,Feature_4,0,1,1,1000,0,448.8530158996582
ADMIN-UCSF-BS004,2017-12-08 21:42:00+00:00,2017-12-12 17:39:05+00:00,,Conjunction_12,1,0,1,1040,0,982.8450083732605
ADMIN-UCSF-BS004,2017-12-08 21:42:00+00:00,2017-12-12 17:39:05+00:00,,Conjunction_4,1,0,0,1040,0,566.1420226097107
ADMIN-UCSF-BS004,2017-12-08 21:42:00+00:00,2017-12-12 17:39:05+00:00,,Feature_12,1,1,1,1040,0,536.2100005149841
ADMIN-UCSF-BS004,2017-12-08 21:42:00+00:00,2017-12-12 17:39:05+00:00,,Feature_4,1,0,1,990,0,508.74900817871094
ADMIN-UCSF-BS004,2017-12-08 21:42:00+00:00,2017-12-12 17:39:05+00:00,,Conjunction_12,2,1,0,1030,1,1038.3639931678772
ADMIN-UCSF-BS004,2017-12-08 21:42:00+00:00,2017-12-12 17:39:05+00:00,,Conjunction_4,2,0,1,1080,0,675.8320331573486
ADMIN-UCSF-BS004,2017-12-08 21:42:00+00:00,2017-12-12 17:39:05+00:00,,Feature_12,2,0,1,1030,0,313.00002336502075
ADMIN-UCSF-BS004,2017-12-08 21:42:00+00:00,2017-12-12 17:39:05+00:00,,Feature_4,2,1,1,980,0,469.5580005645752
ADMIN-UCSF-BS004,2017-12-08 21:42:00+00:00,2017-12-12 17:39:05+00:00,,Conjunction_12,3,0,1,1070,0,837.0479941368103
ADMIN-UCSF-BS004,2017-12-08 21:42:00+00:00,2017-12-12 17:39:05+00:00,,Conjunction_4,3,0,1,1070,0,758.9309811592102
ADMIN-UCSF-BS004,2017-12-08 21:42:00+00:00,2017-12-12 17:39:05+00:00,,Feature_12,3,0,0,1020,0,486.17100715637207
ADMIN-UCSF-BS004,2017-12-08 21:42:00+00:00,2017-12-12 17:39:05+00:00,,Feature_4,3,1,0,960,0,525.5230069160461
ADMIN-UCSF-BS004,2017-12-08 21:42:00+00:00,2017-12-12 17:39:05+00:00,,Conjunction_12,4,0,0,1060,0,612.3270392417908
ADMIN-UCSF-BS004,2017-12-08 21:42:00+00:00,2017-12-12 17:39:05+00:00,,Conjunction_4,4,0,1,1060,0,819.7569847106934
ADMIN-UCSF-BS004,2017-12-08 21:42:00+00:00,2017-12-12 17:39:05+00:00,,Feature_12,4,0,0,1060,1,99.78502988815308
ADMIN-UCSF-BS004,2017-12-08 21:42:00+00:00,2017-12-12 17:39:05+00:00,,Feature_4,4,1,1,1000,0,526.9269943237305
ADMIN-UCSF-BS004,2017-12-08 21:42:00+00:00,2017-12-12 17:39:05+00:00,,Conjunction_12,5,0,0,1100,1,1118.0499792099
ADMIN-UCSF-BS004,2017-12-08 21:42:00+00:00,2017-12-12 17:39:05+00:00,,Conjunction_4,5,1,1,1040,0,943.8149929046631
ADMIN-UCSF-BS004,2017-12-08 21:42:00+00:00,2017-12-12 17:39:05+00:00,,Feature_12,5,0,1,1100,0,802.2689819335938
ADMIN-UCSF-BS004,2017-12-08 21:42:00+00:00,2017-12-12 17:39:05+00:00,,Feature_4,5,0,0,990,0,444.5819854736328
ADMIN-UCSF-BS004,2017-12-08 21:42:00+00:00,2017-12-12 17:39:05+00:00,,Conjunction_12,6,0,0,1140,1,1263.0580067634583
ADMIN-UCSF-BS004,2017-12-08 21:42:00+00:00,2017-12-12 17:39:05+00:00,,Conjunction_4,6,1,0,1000,1,1032.177984714508
ADMIN-UCSF-BS004,2017-12-08 21:42:00+00:00,2017-12-12 17:39:05+00:00,,Feature_12,6,0,0,1090,0,519.8760032653809
ADMIN-UCSF-BS004,2017-12-08 21:42:00+00:00,2017-12-12 17:39:05+00:00,,Feature_4,6,0,1,1030,0,626.0650157928467
ADMIN-UCSF-BS004,2017-12-08 21:42:00+00:00,2017-12-12 17:39:05+00:00,,Conjunction_12,7,1,0,1220,1,1459.9319696426392
ADMIN-UCSF-BS004,2017-12-08 21:42:00+00:00,2017-12-12 17:39:05+00:00,,Conjunction_4,7,1,0,1040,0,715.2940034866333
ADMIN-UCSF-BS004,2017-12-08 21:42:00+00:00,2017-12-12 17:39:05+00:00,,Feature_12,7,1,0,1130,0,672.4410057067871
ADMIN-UCSF-BS004,2017-12-08 21:42:00+00:00,2017-12-12 17:39:05+00:00,,Feature_4,7,1,1,1020,0,666.2320494651794
ADMIN-UCSF-BS004,2017-12-08 21:42:00+00:00,2017-12-12 17:39:05+00:00,,Conjunction_12,8,1,1,1380,0,1242.5139546394348
ADMIN-UCSF-BS004,2017-12-08 21:42:00+00:00,2017-12-12 17:39:05+00:00,,Conjunction_4,8,1,1,1080,0,454.8879861831665
ADMIN-UCSF-BS004,2017-12-08 21:42:00+00:00,2017-12-12 17:39:05+00:00,,Feature_12,8,1,0,1170,0,489.7559881210327
ADMIN-UCSF-BS004,2017-12-08 21:42:00+00:00,2017-12-12 17:39:05+00:00,,Feature_4,8,0,1,1010,0,607.787013053894
ADMIN-UCSF-BS004,2017-12-08 21:42:00+00:00,2017-12-12 17:39:05+00:00,,Conjunction_12,9,1,1,1370,0,1273.0119824409485
ADMIN-UCSF-BS004,2017-12-08 21:42:00+00:00,2017-12-12 17:39:05+00:00,,Conjunction_4,9,1,0,1070,0,565.9639835357666
ADMIN-UCSF-BS004,2017-12-08 21:42:00+00:00,2017-12-12 17:39:05+00:00,,Feature_12,9,1,1,1250,0,687.425971031189
ADMIN-UCSF-BS004,2017-12-08 21:42:00+00:00,2017-12-12 17:39:05+00:00,,Feature_4,9,1,1,990,0,591.1040306091309
ADMIN-UCSF-BS004,2017-12-08 21:42:00+00:00,2017-12-12 17:39:05+00:00,,Conjunction_12,10,0,0,1360,1,1424.7320294380188
ADMIN-UCSF-BS004,2017-12-08 21:42:00+00:00,2017-12-12 17:39:05+00:00,,Conjunction_4,10,1,1,1110,0,736.2580299377441
ADMIN-UCSF-BS004,2017-12-08 21:42:00+00:00,2017-12-12 17:39:05+00:00,,Feature_12,10,1,1,1240,0,894.2370414733887
ADMIN-UCSF-BS004,2017-12-08 21:42:00+00:00,2017-12-12 17:39:05+00:00,,Feature_4,10,0,1,950,0,708.113968372345
ADMIN-UCSF-BS004,2017-12-08 21:42:00+00:00,2017-12-12 17:39:05+00:00,,Conjunction_12,11,1,1,1400,0,1146.0109949111938
ADMIN-UCSF-BS004,2017-12-08 21:42:00+00:00,2017-12-12 17:39:05+00:00,,Conjunction_4,11,1,0,1100,0,915.0100350379944
ADMIN-UCSF-BS004,2017-12-08 21:42:00+00:00,2017-12-12 17:39:05+00:00,,Feature_12,11,0,1,1230,0,868.2900071144104
ADMIN-UCSF-BS004,2017-12-08 21:42:00+00:00,2017-12-12 17:39:05+00:00,,Feature_4,11,1,1,870,0,583.0649733543396
ADMIN-UCSF-BS004,2017-12-08 21:42:00+00:00,2017-12-12 17:39:05+00:00,,Conjunction_12,12,0,1,1390,0,992.8680062294006
ADMIN-UCSF-BS004,2017-12-08 21:42:00+00:00,2017-12-12 17:39:05+00:00,,Conjunction_4,12,0,0,1140,1,1250.6470084190369
ADMIN-UCSF-BS004,2017-12-08 21:42:00+00:00,2017-12-12 17:39:05+00:00,,Feature_12,12,1,1,1210,0,579.5530080795288
ADMIN-UCSF-BS004,2017-12-08 21:42:00+00:00,2017-12-12 17:39:05+00:00,,Feature_4,12,0,1,710,0,678.1100034713745
ADMIN-UCSF-BS004,2017-12-08 21:42:00+00:00,2017-12-12 17:39:05+00:00,,Conjunction_12,13,1,1,1380,0,1307.1890473365784
ADMIN-UCSF-BS004,2017-12-08 21:42:00+00:00,2017-12-12 17:39:05+00:00,,Conjunction_4,13,0,0,1180,0,1141.8500542640686
ADMIN-UCSF-BS004,2017-12-08 21:42:00+00:00,2017-12-12 17:39:05+00:00,,Feature_12,13,1,1,1170,0,603.4770011901855
ADMIN-UCSF-BS004,2017-12-08 21:42:00+00:00,2017-12-12 17:39:05+00:00,,Feature_4,13,1,0,390,1,575.2670168876648
ADMIN-UCSF-BS004,2017-12-08 21:42:00+00:00,2017-12-12 17:39:05+00:00,,Conjunction_12,14,1,0,1360,0,637.8159523010254
ADMIN-UCSF-BS004,2017-12-08 21:42:00+00:00,2017-12-12 17:39:05+00:00,,Conjunction_4,14,0,1,1260,0,659.6740484237671
ADMIN-UCSF-BS004,2017-12-08 21:42:00+00:00,2017-12-12 17:39:05+00:00,,Feature_12,14,1,1,1090,0,577.0280361175537
ADMIN-UCSF-BS004,2017-12-08 21:42:00+00:00,2017-12-12 17:39:05+00:00,,Feature_4,14,1,0,430,1,553.7420511245728
ADMIN-UCSF-BS004,2017-12-08 21:42:00+00:00,2017-12-12 17:39:05+00:00,,Conjunction_12,15,0,0,1400,0,558.4650039672852
ADMIN-UCSF-BS004,2017-12-08 21:42:00+00:00,2017-12-12 17:39:05+00:00,,Conjunction_4,15,1,1,1250,0,781.154990196228
ADMIN-UCSF-BS004,2017-12-08 21:42:00+00:00,2017-12-12 17:39:05+00:00,,Feature_12,15,1,1,930,0,779.2550325393677
ADMIN-UCSF-BS004,2017-12-08 21:42:00+00:00,2017-12-12 17:39:05+00:00,,Feature_4,15,0,0,470,1,517.9170370101929
ADMIN-UCSF-BS004,2017-12-08 21:42:00+00:00,2017-12-12 17:39:05+00:00,,Conjunction_12,16,0,1,1440,0,1271.8510031700134
ADMIN-UCSF-BS004,2017-12-08 21:42:00+00:00,2017-12-12 17:39:05+00:00,,Conjunction_4,16,1,1,1240,0,745.980978012085
ADMIN-UCSF-BS004,2017-12-08 21:42:00+00:00,2017-12-12 17:39:05+00:00,,Feature_12,16,1,0,610,1,717.507004737854
ADMIN-UCSF-BS004,2017-12-08 21:42:00+00:00,2017-12-12 17:39:05+00:00,,Feature_4,16,1,0,550,1,727.3290157318115
ADMIN-UCSF-BS004,2017-12-08 21:42:00+00:00,2017-12-12 17:39:05+00:00,,Conjunction_12,17,1,1,1430,0,1319.4519877433777
ADMIN-UCSF-BS004,2017-12-08 21:42:00+00:00,2017-12-12 17:39:05+00:00,,Conjunction_4,17,0,0,1220,0,496.44196033477783
ADMIN-UCSF-BS004,2017-12-08 21:42:00+00:00,2017-12-12 17:39:05+00:00,,Feature_12,17,0,0,650,1,804.8499822616577
ADMIN-UCSF-BS004,2017-12-08 21:42:00+00:00,2017-12-12 17:39:05+00:00,,Feature_4,17,1,1,710,0,492.7900433540344
ADMIN-UCSF-BS004,2017-12-08 21:42:00+00:00,2017-12-12 17:39:05+00:00,,Conjunction_12,18,1,1,1420,0,1096.0429906845093
ADMIN-UCSF-BS004,2017-12-08 21:42:00+00:00,2017-12-12 17:39:05+00:00,,Conjunction_4,18,1,1,1260,0,877.5429725646973
ADMIN-UCSF-BS004,2017-12-08 21:42:00+00:00,2017-12-12 17:39:05+00:00,,Feature_12,18,0,0,690,1,972.5210070610046
ADMIN-UCSF-BS004,2017-12-08 21:42:00+00:00,2017-12-12 17:39:05+00:00,,Feature_4,18,0,0,700,0,400.1929759979248
ADMIN-UCSF-BS004,2017-12-08 21:42:00+00:00,2017-12-12 17:39:05+00:00,,Conjunction_12,19,0,1,1400,0,1140.0060057640076
ADMIN-UCSF-BS004,2017-12-08 21:42:00+00:00,2017-12-12 17:39:05+00:00,,Conjunction_4,19,1,0,1250,0,867.9270148277283
ADMIN-UCSF-BS004,2017-12-08 21:42:00+00:00,2017-12-12 17:39:05+00:00,,Feature_12,19,0,1,770,0,554.8099875450134
ADMIN-UCSF-BS004,2017-12-08 21:42:00+00:00,2017-12-12 17:39:05+00:00,,Feature_4,19,0,1,740,0,239.98397588729858
ADMIN-UCSF-BS004,2017-12-08 21:42:00+00:00,2017-12-12 17:39:05+00:00,,Conjunction_12,20,1,1,1360,0,1165.9280061721802
ADMIN-UCSF-BS004,2017-12-08 21:42:00+00:00,2017-12-12 17:39:05+00:00,,Conjunction_4,20,1,0,1290,0,1080.5099606513977
ADMIN-UCSF-BS004,2017-12-08 21:42:00+00:00,2017-12-12 17:39:05+00:00,,Feature_12,20,0,0,760,0,443.33797693252563
ADMIN-UCSF-BS004,2017-12-08 21:42:00+00:00,2017-12-12 17:39:05+00:00,,Feature_4,20,0,0,730,0,303.741991519928
ADMIN-UCSF-BS004,2017-12-08 21:42:00+00:00,2017-12-12 17:39:05+00:00,,Conjunction_12,21,0,1,1280,0,1254.0940046310425
ADMIN-UCSF-BS004,2017-12-08 21:42:00+00:00,2017-12-12 17:39:05+00:00,,Conjunction_4,21,1,1,1330,0,1001.7529726028442
ADMIN-UCSF-BS004,2017-12-08 21:42:00+00:00,2017-12-12 17:39:05+00:00,,Feature_12,21,1,0,800,0,369.25798654556274
ADMIN-UCSF-BS004,2017-12-08 21:42:00+00:00,2017-12-12 17:39:05+00:00,,Feature_4,21,1,0,770,0,404.46996688842773
ADMIN-UCSF-BS004,2017-12-08 21:42:00+00:00,2017-12-12 17:39:05+00:00,,Conjunction_12,22,1,0,1120,1,1133.7050199508667
ADMIN-UCSF-BS004,2017-12-08 21:42:00+00:00,2017-12-12 17:39:05+00:00,,Conjunction_4,22,0,1,1320,0,776.2909531593323
ADMIN-UCSF-BS004,2017-12-08 21:42:00+00:00,2017-12-12 17:39:05+00:00,,Feature_12,22,0,1,840,0,470.2380299568176
ADMIN-UCSF-BS004,2017-12-08 21:42:00+00:00,2017-12-12 17:39:05+00:00,,Feature_4,22,0,0,810,1,815.4860138893127
ADMIN-UCSF-BS004,2017-12-08 21:42:00+00:00,2017-12-12 17:39:05+00:00,,Conjunction_12,23,0,0,1160,1,1360.5499863624573
ADMIN-UCSF-BS004,2017-12-08 21:42:00+00:00,2017-12-12 17:39:05+00:00,,Conjunction_4,23,0,1,1310,0,848.5609889030457
ADMIN-UCSF-BS004,2017-12-08 21:42:00+00:00,2017-12-12 17:39:05+00:00,,Feature_12,23,1,0,830,0,761.1470222473145
ADMIN-UCSF-BS004,2017-12-08 21:42:00+00:00,2017-12-12 17:39:05+00:00,,Feature_4,23,1,1,890,0,436.8230104446411
ADMIN-UCSF-BS004,2017-12-08 21:42:00+00:00,2017-12-12 17:39:05+00:00,,Conjunction_12,24,1,1,1200,0,893.297016620636
ADMIN-UCSF-BS004,2017-12-08 21:42:00+00:00,2017-12-12 17:39:05+00:00,,Conjunction_4,24,0,1,1290,0,648.3370065689087
ADMIN-UCSF-BS004,2017-12-08 21:42:00+00:00,2017-12-12 17:39:05+00:00,,Feature_12,24,1,1,870,0,433.9960217475891
ADMIN-UCSF-BS004,2017-12-08 21:42:00+00:00,2017-12-12 17:39:05+00:00,,Feature_4,24,0,1,880,0,475.9349822998047
ADMIN-UCSF-BS001,2017-12-08 22:00:58+00:00,2017-12-12 17:39:05+00:00,,Conjunction_12,0,1,1,1000,0,469.8009490966797
ADMIN-UCSF-BS001,2017-12-08 22:00:58+00:00,2017-12-12 17:39:05+00:00,,Conjunction_4,0,0,1,1000,0,657.1289896965027
ADMIN-UCSF-BS001,2017-12-08 22:00:58+00:00,2017-12-12 17:39:05+00:00,,Feature_12,0,0,1,1000,0,558.5530400276184
ADMIN-UCSF-BS001,2017-12-08 22:00:58+00:00,2017-12-12 17:39:05+00:00,,Feature_4,0,1,0,1000,0,921.7430353164673
ADMIN-UCSF-BS001,2017-12-08 22:00:58+00:00,2017-12-12 17:39:05+00:00,,Conjunction_12,1,0,1,990,0,422.82599210739136
ADMIN-UCSF-BS001,2017-12-08 22:00:58+00:00,2017-12-12 17:39:05+00:00,,Conjunction_4,1,1,0,990,0,558.6349964141846
ADMIN-UCSF-BS001,2017-12-08 22:00:58+00:00,2017-12-12 17:39:05+00:00,,Feature_12,1,0,0,990,0,731.8800091743469
ADMIN-UCSF-BS001,2017-12-08 22:00:58+00:00,2017-12-12 17:39:05+00:00,,Feature_4,1,1,1,1040,0,636.6999745368958
ADMIN-UCSF-BS001,2017-12-08 22:00:58+00:00,2017-12-12 17:39:05+00:00,,Conjunction_12,2,0,1,980,0,685.9059929847717
ADMIN-UCSF-BS001,2017-12-08 22:00:58+00:00,2017-12-12 17:39:05+00:00,,Conjunction_4,2,0,0,1030,0,504.53102588653564
ADMIN-UCSF-BS001,2017-12-08 22:00:58+00:00,2017-12-12 17:39:05+00:00,,Feature_12,2,1,0,1030,0,546.5150475502014
ADMIN-UCSF-BS001,2017-12-08 22:00:58+00:00,2017-12-12 17:39:05+00:00,,Feature_4,2,0,1,1030,0,574.5909810066223
ADMIN-UCSF-BS001,2017-12-08 22:00:58+00:00,2017-12-12 17:39:05+00:00,,Conjunction_12,3,1,1,960,0,621.7530369758606
ADMIN-UCSF-BS001,2017-12-08 22:00:58+00:00,2017-12-12 17:39:05+00:00,,Conjunction_4,3,0,1,1070,0,623.0739951133728
ADMIN-UCSF-BS001,2017-12-08 22:00:58+00:00,2017-12-12 17:39:05+00:00,,Feature_12,3,0,1,1070,0,946.0190534591675
ADMIN-UCSF-BS001,2017-12-08 22:00:58+00:00,2017-12-12 17:39:05+00:00,,Feature_4,3,1,1,1020,0,490.9130334854126
ADMIN-UCSF-BS001,2017-12-08 22:00:58+00:00,2017-12-12 17:39:05+00:00,,Conjunction_12,4,1,1,920,0,586.1849784851074
ADMIN-UCSF-BS001,2017-12-08 22:00:58+00:00,2017-12-12 17:39:05+00:00,,Conjunction_4,4,1,0,1060,0,692.8939819335938
ADMIN-UCSF-BS001,2017-12-08 22:00:58+00:00,2017-12-12 17:39:05+00:00,,Feature_12,4,0,1,1060,0,714.8749828338623
ADMIN-UCSF-BS001,2017-12-08 22:00:58+00:00,2017-12-12 17:39:05+00:00,,Feature_4,4,1,1,1000,0,410.0379943847656
ADMIN-UCSF-BS001,2017-12-08 22:00:58+00:00,2017-12-12 17:39:05+00:00,,Conjunction_12,5,1,0,840,0,486.57798767089844
ADMIN-UCSF-BS001,2017-12-08 22:00:58+00:00,2017-12-12 17:39:05+00:00,,Conjunction_4,5,1,1,1100,0,708.4050178527832
ADMIN-UCSF-BS001,2017-12-08 22:00:58+00:00,2017-12-12 17:39:05+00:00,,Feature_12,5,0,1,1050,0,898.0990052223206
ADMIN-UCSF-BS001,2017-12-08 22:00:58+00:00,2017-12-12 17:39:05+00:00,,Feature_4,5,0,0,960,0,609.7080111503601
ADMIN-UCSF-BS001,2017-12-08 22:00:58+00:00,2017-12-12 17:39:05+00:00,,Conjunction_12,6,0,0,880,0,385.87695360183716
ADMIN-UCSF-BS001,2017-12-08 22:00:58+00:00,2017-12-12 17:39:05+00:00,,Conjunction_4,6,1,0,1090,0,683.5920214653015
ADMIN-UCSF-BS001,2017-12-08 22:00:58+00:00,2017-12-12 17:39:05+00:00,,Feature_12,6,0,1,1030,0,811.4379644393921
ADMIN-UCSF-BS001,2017-12-08 22:00:58+00:00,2017-12-12 17:39:05+00:00,,Feature_4,6,0,1,1000,0,306.65600299835205
ADMIN-UCSF-BS001,2017-12-08 22:00:58+00:00,2017-12-12 17:39:05+00:00,,Conjunction_12,7,1,0,920,0,408.9130163192749
ADMIN-UCSF-BS001,2017-12-08 22:00:58+00:00,2017-12-12 17:39:05+00:00,,Conjunction_4,7,1,1,1130,0,805.9620261192322
ADMIN-UCSF-BS001,2017-12-08 22:00:58+00:00,2017-12-12 17:39:05+00:00,,Feature_12,7,1,0,990,0,752.8259754180908
ADMIN-UCSF-BS001,2017-12-08 22:00:58+00:00,2017-12-12 17:39:05+00:00,,Feature_4,7,1,0,990,0,360.0890040397644
ADMIN-UCSF-BS001,2017-12-08 22:00:58+00:00,2017-12-12 17:39:05+00:00,,Conjunction_12,8,0,0,1000,0,376.92999839782715
ADMIN-UCSF-BS001,2017-12-08 22:00:58+00:00,2017-12-12 17:39:05+00:00,,Conjunction_4,8,1,0,1120,0,765.6489610671997
ADMIN-UCSF-BS001,2017-12-08 22:00:58+00:00,2017-12-12 17:39:05+00:00,,Feature_12,8,1,1,1030,0,917.9940223693848
ADMIN-UCSF-BS001,2017-12-08 22:00:58+00:00,2017-12-12 17:39:05+00:00,,Feature_4,8,1,0,1030,0,468.86199712753296
ADMIN-UCSF-BS001,2017-12-08 22:00:58+00:00,2017-12-12 17:39:05+00:00,,Conjunction_12,9,0,1,1160,0,393.44102144241333
ADMIN-UCSF-BS001,2017-12-08 22:00:58+00:00,2017-12-12 17:39:05+00:00,,Conjunction_4,9,1,1,1160,0,597.91100025177
ADMIN-UCSF-BS001,2017-12-08 22:00:58+00:00,2017-12-12 17:39:05+00:00,,Feature_12,9,1,1,1020,0,868.7649965286255
ADMIN-UCSF-BS001,2017-12-08 22:00:58+00:00,2017-12-12 17:39:05+00:00,,Feature_4,9,0,1,1070,0,443.6030387878418
ADMIN-UCSF-BS001,2017-12-08 22:00:58+00:00,2017-12-12 17:39:05+00:00,,Conjunction_12,10,0,0,1150,0,399.47301149368286
ADMIN-UCSF-BS001,2017-12-08 22:00:58+00:00,2017-12-12 17:39:05+00:00,,Conjunction_4,10,0,1,1150,0,880.2239894866943
ADMIN-UCSF-BS001,2017-12-08 22:00:58+00:00,2017-12-12 17:39:05+00:00,,Feature_12,10,1,1,1010,0,896.7729806900024
ADMIN-UCSF-BS001,2017-12-08 22:00:58+00:00,2017-12-12 17:39:05+00:00,,Feature_4,10,1,1,1060,0,324.2090344429016
ADMIN-UCSF-BS001,2017-12-08 22:00:58+00:00,2017-12-12 17:39:05+00:00,,Conjunction_12,11,1,0,1190,0,476.3830304145813
ADMIN-UCSF-BS001,2017-12-08 22:00:58+00:00,2017-12-12 17:39:05+00:00,,Conjunction_4,11,1,1,1140,0,750.8490085601807
ADMIN-UCSF-BS001,2017-12-08 22:00:58+00:00,2017-12-12 17:39:05+00:00,,Feature_12,11,1,1,990,0,701.356053352356
ADMIN-UCSF-BS001,2017-12-08 22:00:58+00:00,2017-12-12 17:39:05+00:00,,Feature_4,11,0,1,1050,0,283.577024936676
ADMIN-UCSF-BS001,2017-12-08 22:00:58+00:00,2017-12-12 17:39:05+00:00,,Conjunction_12,12,0,0,1230,0,444.45300102233887
ADMIN-UCSF-BS001,2017-12-08 22:00:58+00:00,2017-12-12 17:39:05+00:00,,Conjunction_4,12,0,1,1120,0,539.9340391159058
ADMIN-UCSF-BS001,2017-12-08 22:00:58+00:00,2017-12-12 17:39:05+00:00,,Feature_12,12,1,1,950,0,871.6400265693665
ADMIN-UCSF-BS001,2017-12-08 22:00:58+00:00,2017-12-12 17:39:05+00:00,,Feature_4,12,1,1,1030,0,384.0770125389099
ADMIN-UCSF-BS001,2017-12-08 22:00:58+00:00,2017-12-12 17:39:05+00:00,,Conjunction_12,13,1,1,1310,0,400.0219702720642
ADMIN-UCSF-BS001,2017-12-08 22:00:58+00:00,2017-12-12 17:39:05+00:00,,Conjunction_4,13,0,0,1080,0,570.3759789466858
ADMIN-UCSF-BS001,2017-12-08 22:00:58+00:00,2017-12-12 17:39:05+00:00,,Feature_12,13,1,0,870,1,890.2090191841125
ADMIN-UCSF-BS001,2017-12-08 22:00:58+00:00,2017-12-12 17:39:05+00:00,,Feature_4,13,0,1,990,0,357.8450083732605
ADMIN-UCSF-BS001,2017-12-08 22:00:58+00:00,2017-12-12 17:39:05+00:00,,Conjunction_12,14,0,0,1300,0,419.58099603652954
ADMIN-UCSF-BS001,2017-12-08 22:00:58+00:00,2017-12-12 17:39:05+00:00,,Conjunction_4,14,0,1,1120,0,479.18701171875
ADMIN-UCSF-BS001,2017-12-08 22:00:58+00:00,2017-12-12 17:39:05+00:00,,Feature_12,14,1,1,910,0,577.0840048789978
ADMIN-UCSF-BS001,2017-12-08 22:00:58+00:00,2017-12-12 17:39:05+00:00,,Feature_4,14,1,1,910,0,460.066020488739
ADMIN-UCSF-BS001,2017-12-08 22:00:58+00:00,2017-12-12 17:39:05+00:00,,Conjunction_12,15,0,1,1340,0,477.45800018310547
ADMIN-UCSF-BS001,2017-12-08 22:00:58+00:00,2017-12-12 17:39:05+00:00,,Conjunction_4,15,1,0,1110,0,678.7509918212891
ADMIN-UCSF-BS001,2017-12-08 22:00:58+00:00,2017-12-12 17:39:05+00:00,,Feature_12,15,1,1,900,0,493.7419891357422
ADMIN-UCSF-BS001,2017-12-08 22:00:58+00:00,2017-12-12 17:39:05+00:00,,Feature_4,15,0,1,750,0,470.0409770011902
ADMIN-UCSF-BS001,2017-12-08 22:00:58+00:00,2017-12-12 17:39:05+00:00,,Conjunction_12,16,1,1,1330,0,204.94502782821655
ADMIN-UCSF-BS001,2017-12-08 22:00:58+00:00,2017-12-12 17:39:05+00:00,,Conjunction_4,16,1,0,1150,0,606.4170002937317
ADMIN-UCSF-BS001,2017-12-08 22:00:58+00:00,2017-12-12 17:39:05+00:00,,Feature_12,16,0,0,890,1,1243.5269951820374
ADMIN-UCSF-BS001,2017-12-08 22:00:58+00:00,2017-12-12 17:39:05+00:00,,Feature_4,16,1,0,430,1,432.94399976730347
ADMIN-UCSF-BS001,2017-12-08 22:00:58+00:00,2017-12-12 17:39:05+00:00,,Conjunction_12,17,1,0,1320,0,382.997989654541
ADMIN-UCSF-BS001,2017-12-08 22:00:58+00:00,2017-12-12 17:39:05+00:00,,Conjunction_4,17,0,0,1190,1,N/A
ADMIN-UCSF-BS001,2017-12-08 22:00:58+00:00,2017-12-12 17:39:05+00:00,,Feature_12,17,1,0,930,0,593.7379598617554
ADMIN-UCSF-BS001,2017-12-08 22:00:58+00:00,2017-12-12 17:39:05+00:00,,Feature_4,17,0,1,470,0,390.5370235443115
ADMIN-UCSF-BS001,2017-12-08 22:00:58+00:00,2017-12-12 17:39:05+00:00,,Conjunction_12,18,0,1,1360,0,387.3499631881714
ADMIN-UCSF-BS001,2017-12-08 22:00:58+00:00,2017-12-12 17:39:05+00:00,,Conjunction_4,18,0,1,1270,0,926.0599613189697
ADMIN-UCSF-BS001,2017-12-08 22:00:58+00:00,2017-12-12 17:39:05+00:00,,Feature_12,18,0,0,970,0,802.8889894485474
ADMIN-UCSF-BS001,2017-12-08 22:00:58+00:00,2017-12-12 17:39:05+00:00,,Feature_4,18,1,1,460,0,383.3920359611511
ADMIN-UCSF-BS001,2017-12-08 22:00:58+00:00,2017-12-12 17:39:05+00:00,,Conjunction_12,19,1,0,1350,0,352.9970049858093
ADMIN-UCSF-BS001,2017-12-08 22:00:58+00:00,2017-12-12 17:39:05+00:00,,Conjunction_4,19,0,1,1260,0,877.8960108757019
ADMIN-UCSF-BS001,2017-12-08 22:00:58+00:00,2017-12-12 17:39:05+00:00,,Feature_12,19,0,1,1050,0,659.5339775085449
ADMIN-UCSF-BS001,2017-12-08 22:00:58+00:00,2017-12-12 17:39:05+00:00,,Feature_4,19,1,0,450,1,534.2230200767517
ADMIN-UCSF-BS001,2017-12-08 22:00:58+00:00,2017-12-12 17:39:05+00:00,,Conjunction_12,20,0,0,1390,0,530.9920310974121
ADMIN-UCSF-BS001,2017-12-08 22:00:58+00:00,2017-12-12 17:39:05+00:00,,Conjunction_4,20,1,0,1250,0,826.2270092964172
ADMIN-UCSF-BS001,2017-12-08 22:00:58+00:00,2017-12-12 17:39:05+00:00,,Feature_12,20,0,0,1040,0,527.3129940032959
ADMIN-UCSF-BS001,2017-12-08 22:00:58+00:00,2017-12-12 17:39:05+00:00,,Feature_4,20,0,0,490,0,480.23200035095215
ADMIN-UCSF-BS001,2017-12-08 22:00:58+00:00,2017-12-12 17:39:05+00:00,,Conjunction_12,21,1,0,1430,0,346.0949659347534
ADMIN-UCSF-BS001,2017-12-08 22:00:58+00:00,2017-12-12 17:39:05+00:00,,Conjunction_4,21,1,1,1290,0,635.8450055122375
ADMIN-UCSF-BS001,2017-12-08 22:00:58+00:00,2017-12-12 17:39:05+00:00,,Feature_12,21,0,1,1080,0,443.1159496307373
ADMIN-UCSF-BS001,2017-12-08 22:00:58+00:00,2017-12-12 17:39:05+00:00,,Feature_4,21,0,1,530,0,433.10099840164185
ADMIN-UCSF-BS001,2017-12-08 22:00:58+00:00,2017-12-12 17:39:05+00:00,,Conjunction_12,22,1,1,1510,0,353.71899604797363
ADMIN-UCSF-BS001,2017-12-08 22:00:58+00:00,2017-12-12 17:39:05+00:00,,Conjunction_4,22,1,1,1280,0,1261.1059546470642
ADMIN-UCSF-BS001,2017-12-08 22:00:58+00:00,2017-12-12 17:39:05+00:00,,Feature_12,22,1,0,1070,0,470.54600715637207
ADMIN-UCSF-BS001,2017-12-08 22:00:58+00:00,2017-12-12 17:39:05+00:00,,Feature_4,22,0,0,520,0,482.77097940444946
ADMIN-UCSF-BS001,2017-12-08 22:00:58+00:00,2017-12-12 17:39:05+00:00,,Conjunction_12,23,0,0,1500,0,603.2310128211975
ADMIN-UCSF-BS001,2017-12-08 22:00:58+00:00,2017-12-12 17:39:05+00:00,,Conjunction_4,23,0,0,1270,1,104.30699586868286
ADMIN-UCSF-BS001,2017-12-08 22:00:58+00:00,2017-12-12 17:39:05+00:00,,Feature_12,23,1,1,1110,0,677.3179769515991
ADMIN-UCSF-BS001,2017-12-08 22:00:58+00:00,2017-12-12 17:39:05+00:00,,Feature_4,23,1,0,560,0,544.6370244026184
ADMIN-UCSF-BS001,2017-12-08 22:00:58+00:00,2017-12-12 17:39:05+00:00,,Conjunction_12,24,1,0,1540,0,361.8420362472534
ADMIN-UCSF-BS001,2017-12-08 22:00:58+00:00,2017-12-12 17:39:05+00:00,,Conjunction_4,24,0,1,1310,0,448.09603691101074
ADMIN-UCSF-BS001,2017-12-08 22:00:58+00:00,2017-12-12 17:39:05+00:00,,Feature_12,24,0,1,1100,0,536.6979837417603
ADMIN-UCSF-BS001,2017-12-08 22:00:58+00:00,2017-12-12 17:39:05+00:00,,Feature_4,24,0,0,600,1,741.4689660072327
ADMIN-UCSF-BS012,2018-03-18 16:18:10+00:00,2018-04-16 20:30:00+00:00,,Conjunction_12,0,1,0,1000,1,1234.3180179595947
ADMIN-UCSF-BS012,2018-03-18 16:18:10+00:00,2018-04-16 20:30:00+00:00,,Conjunction_4,0,0,0,1000,0,834.4728946685791
ADMIN-UCSF-BS012,2018-03-18 16:18:10+00:00,2018-04-16 20:30:00+00:00,,Feature_12,0,0,1,1000,0,731.0409545898438
ADMIN-UCSF-BS012,2018-03-18 16:18:10+00:00,2018-04-16 20:30:00+00:00,,Feature_4,0,1,1,1000,0,579.4728994369507
ADMIN-UCSF-BS012,2018-03-18 16:18:10+00:00,2018-04-16 20:30:00+00:00,,Conjunction_12,1,0,1,1040,0,825.247049331665
ADMIN-UCSF-BS012,2018-03-18 16:18:10+00:00,2018-04-16 20:30:00+00:00,,Conjunction_4,1,1,1,1040,0,679.8239946365356
ADMIN-UCSF-BS012,2018-03-18 16:18:10+00:00,2018-04-16 20:30:00+00:00,,Feature_12,1,1,1,990,0,668.9959764480591
ADMIN-UCSF-BS012,2018-03-18 16:18:10+00:00,2018-04-16 20:30:00+00:00,,Feature_4,1,0,1,990,0,411.41295433044434
ADMIN-UCSF-BS012,2018-03-18 16:18:10+00:00,2018-04-16 20:30:00+00:00,,Conjunction_12,2,1,1,1030,0,654.6810865402222
ADMIN-UCSF-BS012,2018-03-18 16:18:10+00:00,2018-04-16 20:30:00+00:00,,Conjunction_4,2,1,1,1030,0,567.9090023040771
ADMIN-UCSF-BS012,2018-03-18 16:18:10+00:00,2018-04-16 20:30:00+00:00,,Feature_12,2,1,0,980,0,505.3199529647827
ADMIN-UCSF-BS012,2018-03-18 16:18:10+00:00,2018-04-16 20:30:00+00:00,,Feature_4,2,0,0,980,0,376.22201442718506
ADMIN-UCSF-BS012,2018-03-18 16:18:10+00:00,2018-04-16 20:30:00+00:00,,Conjunction_12,3,0,1,1020,0,693.5309171676636
ADMIN-UCSF-BS012,2018-03-18 16:18:10+00:00,2018-04-16 20:30:00+00:00,,Conjunction_4,3,1,0,1020,0,496.12104892730713
ADMIN-UCSF-BS012,2018-03-18 16:18:10+00:00,2018-04-16 20:30:00+00:00,,Feature_12,3,1,1,1020,0,852.2700071334839
ADMIN-UCSF-BS012,2018-03-18 16:18:10+00:00,2018-04-16 20:30:00+00:00,,Feature_4,3,1,0,1020,0,435.0179433822632
ADMIN-UCSF-BS012,2018-03-18 16:18:10+00:00,2018-04-16 20:30:00+00:00,,Conjunction_12,4,0,1,1000,0,685.2589845657349
ADMIN-UCSF-BS012,2018-03-18 16:18:10+00:00,2018-04-16 20:30:00+00:00,,Conjunction_4,4,1,1,1060,0,767.0010328292847
ADMIN-UCSF-BS012,2018-03-18 16:18:10+00:00,2018-04-16 20:30:00+00:00,,Feature_12,4,1,1,1010,0,570.1569318771362
ADMIN-UCSF-BS012,2018-03-18 16:18:10+00:00,2018-04-16 20:30:00+00:00,,Feature_4,4,0,1,1060,0,758.9130401611328
ADMIN-UCSF-BS012,2018-03-18 16:18:10+00:00,2018-04-16 20:30:00+00:00,,Conjunction_12,5,0,1,960,0,957.4320316314697
ADMIN-UCSF-BS012,2018-03-18 16:18:10+00:00,2018-04-16 20:30:00+00:00,,Conjunction_4,5,0,0,1050,0,652.8699398040771
ADMIN-UCSF-BS012,2018-03-18 16:18:10+00:00,2018-04-16 20:30:00+00:00,,Feature_12,5,1,1,1000,0,801.0969161987305
ADMIN-UCSF-BS012,2018-03-18 16:18:10+00:00,2018-04-16 20:30:00+00:00,,Feature_4,5,1,1,1050,0,486.8800640106201
ADMIN-UCSF-BS012,2018-03-18 16:18:10+00:00,2018-04-16 20:30:00+00:00,,Conjunction_12,6,1,1,880,0,601.5900373458862
ADMIN-UCSF-BS012,2018-03-18 16:18:10+00:00,2018-04-16 20:30:00+00:00,,Conjunction_4,6,0,1,1090,0,698.7789869308472
ADMIN-UCSF-BS012,2018-03-18 16:18:10+00:00,2018-04-16 20:30:00+00:00,,Feature_12,6,0,1,980,0,627.9259920120239
ADMIN-UCSF-BS012,2018-03-18 16:18:10+00:00,2018-04-16 20:30:00+00:00,,Feature_4,6,0,1,1040,0,459.9339962005615
ADMIN-UCSF-BS012,2018-03-18 16:18:10+00:00,2018-04-16 20:30:00+00:00,,Conjunction_12,7,0,1,720,0,703.2309770584106
ADMIN-UCSF-BS012,2018-03-18 16:18:10+00:00,2018-04-16 20:30:00+00:00,,Conjunction_4,7,0,1,1080,0,657.6600074768066
ADMIN-UCSF-BS012,2018-03-18 16:18:10+00:00,2018-04-16 20:30:00+00:00,,Feature_12,7,1,1,940,0,486.9610071182251
ADMIN-UCSF-BS012,2018-03-18 16:18:10+00:00,2018-04-16 20:30:00+00:00,,Feature_4,7,1,1,1020,0,516.3079500198364
ADMIN-UCSF-BS012,2018-03-18 16:18:10+00:00,2018-04-16 20:30:00+00:00,,Conjunction_12,8,0,0,400,1,1314.3600225448608
ADMIN-UCSF-BS012,2018-03-18 16:18:10+00:00,2018-04-16 20:30:00+00:00,,Conjunction_4,8,1,1,1070,0,778.2069444656372
ADMIN-UCSF-BS012,2018-03-18 16:18:10+00:00,2018-04-16 20:30:00+00:00,,Feature_12,8,1,1,860,0,652.305006980896
ADMIN-UCSF-BS012,2018-03-18 16:18:10+00:00,2018-04-16 20:30:00+00:00,,Feature_4,8,0,1,980,0,375.5528926849365
ADMIN-UCSF-BS012,2018-03-18 16:18:10+00:00,2018-04-16 20:30:00+00:00,,Conjunction_12,9,1,0,440,1,980.2109003067017
ADMIN-UCSF-BS012,2018-03-18 16:18:10+00:00,2018-04-16 20:30:00+00:00,,Conjunction_4,9,1,1,1050,0,655.7290554046631
ADMIN-UCSF-BS012,2018-03-18 16:18:10+00:00,2018-04-16 20:30:00+00:00,,Feature_12,9,1,1,700,0,525.6350040435791
ADMIN-UCSF-BS012,2018-03-18 16:18:10+00:00,2018-04-16 20:30:00+00:00,,Feature_4,9,0,1,900,0,560.3259801864624
ADMIN-UCSF-BS012,2018-03-18 16:18:10+00:00,2018-04-16 20:30:00+00:00,,Conjunction_12,10,0,0,480,1,787.7529859542847
ADMIN-UCSF-BS012,2018-03-18 16:18:10+00:00,2018-04-16 20:30:00+00:00,,Conjunction_4,10,0,1,1010,0,688.3139610290527
ADMIN-UCSF-BS012,2018-03-18 16:18:10+00:00,2018-04-16 20:30:00+00:00,,Feature_12,10,0,0,380,1,645.0790166854858
ADMIN-UCSF-BS012,2018-03-18 16:18:10+00:00,2018-04-16 20:30:00+00:00,,Feature_4,10,0,1,740,0,619.0260648727417
ADMIN-UCSF-BS012,2018-03-18 16:18:10+00:00,2018-04-16 20:30:00+00:00,,Conjunction_12,11,1,0,560,1,776.1590480804443
ADMIN-UCSF-BS012,2018-03-18 16:18:10+00:00,2018-04-16 20:30:00+00:00,,Conjunction_4,11,0,0,930,0,747.6730346679688
ADMIN-UCSF-BS012,2018-03-18 16:18:10+00:00,2018-04-16 20:30:00+00:00,,Feature_12,11,0,0,420,1,749.9769926071167
ADMIN-UCSF-BS012,2018-03-18 16:18:10+00:00,2018-04-16 20:30:00+00:00,,Feature_4,11,1,0,420,1,591.7789936065674
ADMIN-UCSF-BS012,2018-03-18 16:18:10+00:00,2018-04-16 20:30:00+00:00,,Conjunction_12,12,1,0,720,1,N/A
ADMIN-UCSF-BS012,2018-03-18 16:18:10+00:00,2018-04-16 20:30:00+00:00,,Conjunction_4,12,1,0,970,1,N/A
ADMIN-UCSF-BS012,2018-03-18 16:18:10+00:00,2018-04-16 20:30:00+00:00,,Feature_12,12,0,0,460,1,710.8479738235474
ADMIN-UCSF-BS012,2018-03-18 16:18:10+00:00,2018-04-16 20:30:00+00:00,,Feature_4,12,1,0,460,1,533.7709188461304
ADMIN-UCSF-BS012,2018-03-18 16:18:10+00:00,2018-04-16 20:30:00+00:00,,Conjunction_12,13,0,1,1040,0,802.899956703186
ADMIN-UCSF-BS012,2018-03-18 16:18:10+00:00,2018-04-16 20:30:00+00:00,,Conjunction_4,13,1,1,1010,0,598.8270044326782
ADMIN-UCSF-BS012,2018-03-18 16:18:10+00:00,2018-04-16 20:30:00+00:00,,Feature_12,13,1,0,540,1,679.8690557479858
ADMIN-UCSF-BS012,2018-03-18 16:18:10+00:00,2018-04-16 20:30:00+00:00,,Feature_4,13,1,0,500,0,492.3269748687744
ADMIN-UCSF-BS012,2018-03-18 16:18:10+00:00,2018-04-16 20:30:00+00:00,,Conjunction_12,14,1,0,1030,1,1324.6750831604004
ADMIN-UCSF-BS012,2018-03-18 16:18:10+00:00,2018-04-16 20:30:00+00:00,,Conjunction_4,14,0,0,1000,1,N/A
ADMIN-UCSF-BS012,2018-03-18 16:18:10+00:00,2018-04-16 20:30:00+00:00,,Feature_12,14,0,0,700,1,910.9020233154297
ADMIN-UCSF-BS012,2018-03-18 16:18:10+00:00,2018-04-16 20:30:00+00:00,,Feature_4,14,1,1,580,0,567.1271085739136
ADMIN-UCSF-BS012,2018-03-18 16:18:10+00:00,2018-04-16 20:30:00+00:00,,Conjunction_12,15,1,0,1070,1,1203.1888961791992
ADMIN-UCSF-BS012,2018-03-18 16:18:10+00:00,2018-04-16 20:30:00+00:00,,Conjunction_4,15,1,1,1040,0,660.5089902877808
ADMIN-UCSF-BS012,2018-03-18 16:18:10+00:00,2018-04-16 20:30:00+00:00,,Feature_12,15,0,1,1020,0,670.6000566482544
ADMIN-UCSF-BS012,2018-03-18 16:18:10+00:00,2018-04-16 20:30:00+00:00,,Feature_4,15,1,0,570,1,643.3309316635132
ADMIN-UCSF-BS012,2018-03-18 16:18:10+00:00,2018-04-16 20:30:00+00:00,,Conjunction_12,16,1,0,1110,1,1360.4549169540405
ADMIN-UCSF-BS012,2018-03-18 16:18:10+00:00,2018-04-16 20:30:00+00:00,,Conjunction_4,16,0,1,1030,0,760.9759569168091
ADMIN-UCSF-BS012,2018-03-18 16:18:10+00:00,2018-04-16 20:30:00+00:00,,Feature_12,16,1,1,1010,0,959.1319561004639
ADMIN-UCSF-BS012,2018-03-18 16:18:10+00:00,2018-04-16 20:30:00+00:00,,Feature_4,16,1,0,610,1,674.125075340271
ADMIN-UCSF-BS012,2018-03-18 16:18:10+00:00,2018-04-16 20:30:00+00:00,,Conjunction_12,17,0,0,1190,1,N/A
ADMIN-UCSF-BS012,2018-03-18 16:18:10+00:00,2018-04-16 20:30:00+00:00,,Conjunction_4,17,1,1,1020,0,661.0040664672852
ADMIN-UCSF-BS012,2018-03-18 16:18:10+00:00,2018-04-16 20:30:00+00:00,,Feature_12,17,1,1,1000,0,419.0720319747925
ADMIN-UCSF-BS012,2018-03-18 16:18:10+00:00,2018-04-16 20:30:00+00:00,,Feature_4,17,0,0,650,1,742.9250478744507
ADMIN-UCSF-BS012,2018-03-18 16:18:10+00:00,2018-04-16 20:30:00+00:00,,Conjunction_12,18,1,1,1350,0,1306.2199354171753
ADMIN-UCSF-BS012,2018-03-18 16:18:10+00:00,2018-04-16 20:30:00+00:00,,Conjunction_4,18,0,1,1000,0,710.8809947967529
ADMIN-UCSF-BS012,2018-03-18 16:18:10+00:00,2018-04-16 20:30:00+00:00,,Feature_12,18,1,0,980,0,591.0090208053589
ADMIN-UCSF-BS012,2018-03-18 16:18:10+00:00,2018-04-16 20:30:00+00:00,,Feature_4,18,0,0,730,1,734.0419292449951
ADMIN-UCSF-BS012,2018-03-18 16:18:10+00:00,2018-04-16 20:30:00+00:00,,Conjunction_12,19,1,1,1340,0,1119.8559999465942
ADMIN-UCSF-BS012,2018-03-18 16:18:10+00:00,2018-04-16 20:30:00+00:00,,Conjunction_4,19,0,0,960,1,1012.4990940093994
ADMIN-UCSF-BS012,2018-03-18 16:18:10+00:00,2018-04-16 20:30:00+00:00,,Feature_12,19,0,0,1020,0,410.90500354766846
ADMIN-UCSF-BS012,2018-03-18 16:18:10+00:00,2018-04-16 20:30:00+00:00,,Feature_4,19,1,0,890,1,956.5380811691284
ADMIN-UCSF-BS012,2018-03-18 16:18:10+00:00,2018-04-16 20:30:00+00:00,,Conjunction_12,20,0,0,1330,1,1432.0069551467896
ADMIN-UCSF-BS012,2018-03-18 16:18:10+00:00,2018-04-16 20:30:00+00:00,,Conjunction_4,20,1,1,1000,0,591.3459062576294
ADMIN-UCSF-BS012,2018-03-18 16:18:10+00:00,2018-04-16 20:30:00+00:00,,Feature_12,20,0,1,1060,0,448.1830596923828
ADMIN-UCSF-BS012,2018-03-18 16:18:10+00:00,2018-04-16 20:30:00+00:00,,Feature_4,20,1,1,1210,0,572.8780031204224
ADMIN-UCSF-BS012,2018-03-18 16:18:10+00:00,2018-04-16 20:30:00+00:00,,Conjunction_12,21,0,1,1370,0,1123.1579780578613
ADMIN-UCSF-BS012,2018-03-18 16:18:10+00:00,2018-04-16 20:30:00+00:00,,Conjunction_4,21,1,1,990,0,813.075065612793
ADMIN-UCSF-BS012,2018-03-18 16:18:10+00:00,2018-04-16 20:30:00+00:00,,Feature_12,21,1,1,1050,0,602.8779745101929
ADMIN-UCSF-BS012,2018-03-18 16:18:10+00:00,2018-04-16 20:30:00+00:00,,Feature_4,21,1,1,1200,0,868.3780431747437
ADMIN-UCSF-BS012,2018-03-18 16:18:10+00:00,2018-04-16 20:30:00+00:00,,Conjunction_12,22,0,1,1360,0,652.3870229721069
ADMIN-UCSF-BS012,2018-03-18 16:18:10+00:00,2018-04-16 20:30:00+00:00,,Conjunction_4,22,1,1,980,0,611.2929582595825
ADMIN-UCSF-BS012,2018-03-18 16:18:10+00:00,2018-04-16 20:30:00+00:00,,Feature_12,22,0,1,1040,0,624.006986618042
ADMIN-UCSF-BS012,2018-03-18 16:18:10+00:00,2018-04-16 20:30:00+00:00,,Feature_4,22,0,1,1190,0,720.5129861831665
ADMIN-UCSF-BS012,2018-03-18 16:18:10+00:00,2018-04-16 20:30:00+00:00,,Conjunction_12,23,1,1,1350,0,578.3319473266602
ADMIN-UCSF-BS012,2018-03-18 16:18:10+00:00,2018-04-16 20:30:00+00:00,,Conjunction_4,23,0,1,960,0,552.4009466171265
ADMIN-UCSF-BS012,2018-03-18 16:18:10+00:00,2018-04-16 20:30:00+00:00,,Feature_12,23,0,1,1020,0,676.5110492706299
ADMIN-UCSF-BS012,2018-03-18 16:18:10+00:00,2018-04-16 20:30:00+00:00,,Feature_4,23,0,1,1170,0,744.0190315246582
ADMIN-UCSF-BS012,2018-03-18 16:18:10+00:00,2018-04-16 20:30:00+00:00,,Conjunction_12,24,1,0,1330,1,N/A
ADMIN-UCSF-BS012,2018-03-18 16:18:10+00:00,2018-04-16 20:30:00+00:00,,Conjunction_4,24,0,1,920,0,561.2250566482544
ADMIN-UCSF-BS012,2018-03-18 16:18:10+00:00,2018-04-16 20:30:00+00:00,,Feature_12,24,0,1,980,0,666.6219234466553
ADMIN-UCSF-BS012,2018-03-18 16:18:10+00:00,2018-04-16 20:30:00+00:00,,Feature_4,24,0,1,1130,0,855.4259538650513
ADMIN-UCSF-BS013,2018-03-18 16:40:46+00:00,2018-04-16 20:30:00+00:00,,Conjunction_12,0,1,0,1000,1,1109.0070009231567
ADMIN-UCSF-BS013,2018-03-18 16:40:46+00:00,2018-04-16 20:30:00+00:00,,Conjunction_4,0,1,0,1000,1,1048.427939414978
ADMIN-UCSF-BS013,2018-03-18 16:40:46+00:00,2018-04-16 20:30:00+00:00,,Feature_12,0,1,1,1000,0,611.6530895233154
ADMIN-UCSF-BS013,2018-03-18 16:40:46+00:00,2018-04-16 20:30:00+00:00,,Feature_4,0,0,1,1000,0,676.1170625686646
ADMIN-UCSF-BS013,2018-03-18 16:40:46+00:00,2018-04-16 20:30:00+00:00,,Conjunction_12,1,1,0,1040,1,1142.5729990005493
ADMIN-UCSF-BS013,2018-03-18 16:40:46+00:00,2018-04-16 20:30:00+00:00,,Conjunction_4,1,1,1,1040,0,859.8730564117432
ADMIN-UCSF-BS013,2018-03-18 16:40:46+00:00,2018-04-16 20:30:00+00:00,,Feature_12,1,1,1,990,0,578.3489942550659
ADMIN-UCSF-BS013,2018-03-18 16:40:46+00:00,2018-04-16 20:30:00+00:00,,Feature_4,1,1,1,990,0,699.8029947280884
ADMIN-UCSF-BS013,2018-03-18 16:40:46+00:00,2018-04-16 20:30:00+00:00,,Conjunction_12,2,0,0,1080,1,1223.8260507583618
ADMIN-UCSF-BS013,2018-03-18 16:40:46+00:00,2018-04-16 20:30:00+00:00,,Conjunction_4,2,1,1,1030,0,513.6799812316895
ADMIN-UCSF-BS013,2018-03-18 16:40:46+00:00,2018-04-16 20:30:00+00:00,,Feature_12,2,1,1,980,0,720.810055732727
ADMIN-UCSF-BS013,2018-03-18 16:40:46+00:00,2018-04-16 20:30:00+00:00,,Feature_4,2,1,1,980,0,704.9139738082886
ADMIN-UCSF-BS013,2018-03-18 16:40:46+00:00,2018-04-16 20:30:00+00:00,,Conjunction_12,3,0,0,1160,1,1212.2029066085815
ADMIN-UCSF-BS013,2018-03-18 16:40:46+00:00,2018-04-16 20:30:00+00:00,,Conjunction_4,3,0,1,1020,0,766.4309740066528
ADMIN-UCSF-BS013,2018-03-18 16:40:46+00:00,2018-04-16 20:30:00+00:00,,Feature_12,3,1,1,960,0,805.9699535369873
ADMIN-UCSF-BS013,2018-03-18 16:40:46+00:00,2018-04-16 20:30:00+00:00,,Feature_4,3,1,1,960,0,535.7871055603027
ADMIN-UCSF-BS013,2018-03-18 16:40:46+00:00,2018-04-16 20:30:00+00:00,,Conjunction_12,4,1,0,1320,1,N/A
ADMIN-UCSF-BS013,2018-03-18 16:40:46+00:00,2018-04-16 20:30:00+00:00,,Conjunction_4,4,1,1,1000,0,687.2889995574951
ADMIN-UCSF-BS013,2018-03-18 16:40:46+00:00,2018-04-16 20:30:00+00:00,,Feature_12,4,1,1,920,0,620.8668947219849
ADMIN-UCSF-BS013,2018-03-18 16:40:46+00:00,2018-04-16 20:30:00+00:00,,Feature_4,4,0,1,920,0,592.2520160675049
ADMIN-UCSF-BS013,2018-03-18 16:40:46+00:00,2018-04-16 20:30:00+00:00,,Conjunction_12,5,0,0,1640,0,1225.221037864685
ADMIN-UCSF-BS013,2018-03-18 16:40:46+00:00,2018-04-16 20:30:00+00:00,,Conjunction_4,5,1,1,960,0,810.2250099182129
ADMIN-UCSF-BS013,2018-03-18 16:40:46+00:00,2018-04-16 20:30:00+00:00,,Feature_12,5,1,1,840,0,535.2749824523926
ADMIN-UCSF-BS013,2018-03-18 16:40:46+00:00,2018-04-16 20:30:00+00:00,,Feature_4,5,0,1,840,0,720.7660675048828
ADMIN-UCSF-BS013,2018-03-18 16:40:46+00:00,2018-04-16 20:30:00+00:00,,Conjunction_12,6,0,1,2280,0,1007.6420307159424
ADMIN-UCSF-BS013,2018-03-18 16:40:46+00:00,2018-04-16 20:30:00+00:00,,Conjunction_4,6,1,1,880,0,746.6129064559937
ADMIN-UCSF-BS013,2018-03-18 16:40:46+00:00,2018-04-16 20:30:00+00:00,,Feature_12,6,0,0,680,1,757.909893989563
ADMIN-UCSF-BS013,2018-03-18 16:40:46+00:00,2018-04-16 20:30:00+00:00,,Feature_4,6,0,1,680,0,635.9540224075317
ADMIN-UCSF-BS013,2018-03-18 16:40:46+00:00,2018-04-16 20:30:00+00:00,,Conjunction_12,7,0,1,2270,0,1091.2809371948242
ADMIN-UCSF-BS013,2018-03-18 16:40:46+00:00,2018-04-16 20:30:00+00:00,,Conjunction_4,7,1,0,720,1,1014.53697681427
ADMIN-UCSF-BS013,2018-03-18 16:40:46+00:00,2018-04-16 20:30:00+00:00,,Feature_12,7,1,0,720,1,768.1280374526978
ADMIN-UCSF-BS013,2018-03-18 16:40:46+00:00,2018-04-16 20:30:00+00:00,,Feature_4,7,1,0,360,1,651.5989303588867
ADMIN-UCSF-BS013,2018-03-18 16:40:46+00:00,2018-04-16 20:30:00+00:00,,Conjunction_12,8,1,1,2260,0,1328.207015991211
ADMIN-UCSF-BS013,2018-03-18 16:40:46+00:00,2018-04-16 20:30:00+00:00,,Conjunction_4,8,1,1,760,0,579.2750120162964
ADMIN-UCSF-BS013,2018-03-18 16:40:46+00:00,2018-04-16 20:30:00+00:00,,Feature_12,8,0,1,760,0,702.3259401321411
ADMIN-UCSF-BS013,2018-03-18 16:40:46+00:00,2018-04-16 20:30:00+00:00,,Feature_4,8,0,0,400,1,707.8460454940796
ADMIN-UCSF-BS013,2018-03-18 16:40:46+00:00,2018-04-16 20:30:00+00:00,,Conjunction_12,9,0,1,2240,0,1153.752088546753
ADMIN-UCSF-BS013,2018-03-18 16:40:46+00:00,2018-04-16 20:30:00+00:00,,Conjunction_4,9,0,0,750,1,900.810956954956
ADMIN-UCSF-BS013,2018-03-18 16:40:46+00:00,2018-04-16 20:30:00+00:00,,Feature_12,9,1,1,750,0,669.2720651626587
ADMIN-UCSF-BS013,2018-03-18 16:40:46+00:00,2018-04-16 20:30:00+00:00,,Feature_4,9,0,0,440,1,693.2439804077148
ADMIN-UCSF-BS013,2018-03-18 16:40:46+00:00,2018-04-16 20:30:00+00:00,,Conjunction_12,10,1,1,2200,0,1323.786973953247
ADMIN-UCSF-BS013,2018-03-18 16:40:46+00:00,2018-04-16 20:30:00+00:00,,Conjunction_4,10,0,1,790,0,785.0489616394043
ADMIN-UCSF-BS013,2018-03-18 16:40:46+00:00,2018-04-16 20:30:00+00:00,,Feature_12,10,1,1,740,0,689.3359422683716
ADMIN-UCSF-BS013,2018-03-18 16:40:46+00:00,2018-04-16 20:30:00+00:00,,Feature_4,10,1,0,520,1,626.236081123352
ADMIN-UCSF-BS013,2018-03-18 16:40:46+00:00,2018-04-16 20:30:00+00:00,,Conjunction_12,11,1,0,2120,0,509.99999046325684
ADMIN-UCSF-BS013,2018-03-18 16:40:46+00:00,2018-04-16 20:30:00+00:00,,Conjunction_4,11,1,0,780,1,849.1730690002441
ADMIN-UCSF-BS013,2018-03-18 16:40:46+00:00,2018-04-16 20:30:00+00:00,,Feature_12,11,0,0,720,1,816.6519403457642
ADMIN-UCSF-BS013,2018-03-18 16:40:46+00:00,2018-04-16 20:30:00+00:00,,Feature_4,11,1,0,680,1,950.4389762878418
ADMIN-UCSF-BS013,2018-03-18 16:40:46+00:00,2018-04-16 20:30:00+00:00,,Conjunction_12,12,0,0,2160,0,801.2570142745972
ADMIN-UCSF-BS013,2018-03-18 16:40:46+00:00,2018-04-16 20:30:00+00:00,,Conjunction_4,12,1,0,820,1,871.2400197982788
ADMIN-UCSF-BS013,2018-03-18 16:40:46+00:00,2018-04-16 20:30:00+00:00,,Feature_12,12,0,0,760,1,978.4979820251465
ADMIN-UCSF-BS013,2018-03-18 16:40:46+00:00,2018-04-16 20:30:00+00:00,,Feature_4,12,1,1,1000,0,633.3060264587402
ADMIN-UCSF-BS013,2018-03-18 16:40:46+00:00,2018-04-16 20:30:00+00:00,,Conjunction_12,13,0,1,2200,0,1227.686047554016
ADMIN-UCSF-BS013,2018-03-18 16:40:46+00:00,2018-04-16 20:30:00+00:00,,Conjunction_4,13,0,0,860,1,877.8790235519409
ADMIN-UCSF-BS013,2018-03-18 16:40:46+00:00,2018-04-16 20:30:00+00:00,,Feature_12,13,1,0,800,1,1163.2890701293945
ADMIN-UCSF-BS013,2018-03-18 16:40:46+00:00,2018-04-16 20:30:00+00:00,,Feature_4,13,0,1,990,0,809.9600076675415
ADMIN-UCSF-BS013,2018-03-18 16:40:46+00:00,2018-04-16 20:30:00+00:00,,Conjunction_12,14,0,1,2190,0,794.9380874633789
ADMIN-UCSF-BS013,2018-03-18 16:40:46+00:00,2018-04-16 20:30:00+00:00,,Conjunction_4,14,0,0,940,1,1030.3919315338135
ADMIN-UCSF-BS013,2018-03-18 16:40:46+00:00,2018-04-16 20:30:00+00:00,,Feature_12,14,0,1,880,0,834.9530696868896
ADMIN-UCSF-BS013,2018-03-18 16:40:46+00:00,2018-04-16 20:30:00+00:00,,Feature_4,14,1,1,980,0,732.7589988708496
ADMIN-UCSF-BS013,2018-03-18 16:40:46+00:00,2018-04-16 20:30:00+00:00,,Conjunction_12,15,1,1,2180,0,1208.4299325942993
ADMIN-UCSF-BS013,2018-03-18 16:40:46+00:00,2018-04-16 20:30:00+00:00,,Conjunction_4,15,0,1,1100,0,1015.207052230835
ADMIN-UCSF-BS013,2018-03-18 16:40:46+00:00,2018-04-16 20:30:00+00:00,,Feature_12,15,1,1,870,0,788.7500524520874
ADMIN-UCSF-BS013,2018-03-18 16:40:46+00:00,2018-04-16 20:30:00+00:00,,Feature_4,15,0,1,960,0,848.7230539321899
ADMIN-UCSF-BS013,2018-03-18 16:40:46+00:00,2018-04-16 20:30:00+00:00,,Conjunction_12,16,1,0,2160,0,1006.100058555603
ADMIN-UCSF-BS013,2018-03-18 16:40:46+00:00,2018-04-16 20:30:00+00:00,,Conjunction_4,16,0,1,1090,0,1014.894962310791
ADMIN-UCSF-BS013,2018-03-18 16:40:46+00:00,2018-04-16 20:30:00+00:00,,Feature_12,16,1,1,860,0,752.3009777069092
ADMIN-UCSF-BS013,2018-03-18 16:40:46+00:00,2018-04-16 20:30:00+00:00,,Feature_4,16,1,1,920,0,697.2460746765137
ADMIN-UCSF-BS013,2018-03-18 16:40:46+00:00,2018-04-16 20:30:00+00:00,,Conjunction_12,17,0,1,2200,0,752.3850202560425
ADMIN-UCSF-BS013,2018-03-18 16:40:46+00:00,2018-04-16 20:30:00+00:00,,Conjunction_4,17,0,1,1080,0,876.2589693069458
ADMIN-UCSF-BS013,2018-03-18 16:40:46+00:00,2018-04-16 20:30:00+00:00,,Feature_12,17,0,1,840,0,649.9660015106201
ADMIN-UCSF-BS013,2018-03-18 16:40:46+00:00,2018-04-16 20:30:00+00:00,,Feature_4,17,0,1,840,0,837.4670743942261
ADMIN-UCSF-BS013,2018-03-18 16:40:46+00:00,2018-04-16 20:30:00+00:00,,Conjunction_12,18,1,1,2190,0,1110.3020906448364
ADMIN-UCSF-BS013,2018-03-18 16:40:46+00:00,2018-04-16 20:30:00+00:00,,Conjunction_4,18,1,1,1060,0,965.4829502105713
ADMIN-UCSF-BS013,2018-03-18 16:40:46+00:00,2018-04-16 20:30:00+00:00,,Feature_12,18,0,0,800,1,828.948974609375
ADMIN-UCSF-BS013,2018-03-18 16:40:46+00:00,2018-04-16 20:30:00+00:00,,Feature_4,18,0,1,680,0,635.6339454650879
ADMIN-UCSF-BS013,2018-03-18 16:40:46+00:00,2018-04-16 20:30:00+00:00,,Conjunction_12,19,1,0,2180,0,1068.1090354919434
ADMIN-UCSF-BS013,2018-03-18 16:40:46+00:00,2018-04-16 20:30:00+00:00,,Conjunction_4,19,1,1,1020,0,943.0700540542603
ADMIN-UCSF-BS013,2018-03-18 16:40:46+00:00,2018-04-16 20:30:00+00:00,,Feature_12,19,0,1,840,0,600.9689569473267
ADMIN-UCSF-BS013,2018-03-18 16:40:46+00:00,2018-04-16 20:30:00+00:00,,Feature_4,19,1,0,360,1,824.0330219268799
ADMIN-UCSF-BS013,2018-03-18 16:40:46+00:00,2018-04-16 20:30:00+00:00,,Conjunction_12,20,0,1,2220,0,822.0729827880859
ADMIN-UCSF-BS013,2018-03-18 16:40:46+00:00,2018-04-16 20:30:00+00:00,,Conjunction_4,20,0,0,940,1,991.2810325622559
ADMIN-UCSF-BS013,2018-03-18 16:40:46+00:00,2018-04-16 20:30:00+00:00,,Feature_12,20,0,1,830,0,700.6980180740356
ADMIN-UCSF-BS013,2018-03-18 16:40:46+00:00,2018-04-16 20:30:00+00:00,,Feature_4,20,1,0,400,1,946.4730024337769
ADMIN-UCSF-BS013,2018-03-18 16:40:46+00:00,2018-04-16 20:30:00+00:00,,Conjunction_12,21,1,1,2210,0,967.5009250640869
ADMIN-UCSF-BS013,2018-03-18 16:40:46+00:00,2018-04-16 20:30:00+00:00,,Conjunction_4,21,1,0,980,1,1117.1979904174805
ADMIN-UCSF-BS013,2018-03-18 16:40:46+00:00,2018-04-16 20:30:00+00:00,,Feature_12,21,1,0,820,1,844.3989753723145
ADMIN-UCSF-BS013,2018-03-18 16:40:46+00:00,2018-04-16 20:30:00+00:00,,Feature_4,21,0,0,440,1,634.1989040374756
ADMIN-UCSF-BS013,2018-03-18 16:40:46+00:00,2018-04-16 20:30:00+00:00,,Conjunction_12,22,0,1,2200,0,975.2939939498901
ADMIN-UCSF-BS013,2018-03-18 16:40:46+00:00,2018-04-16 20:30:00+00:00,,Conjunction_4,22,0,1,1020,0,987.5469207763672
ADMIN-UCSF-BS013,2018-03-18 16:40:46+00:00,2018-04-16 20:30:00+00:00,,Feature_12,22,0,0,860,1,930.6409358978271
ADMIN-UCSF-BS013,2018-03-18 16:40:46+00:00,2018-04-16 20:30:00+00:00,,Feature_4,22,0,0,520,1,773.495078086853
ADMIN-UCSF-BS013,2018-03-18 16:40:46+00:00,2018-04-16 20:30:00+00:00,,Conjunction_12,23,1,0,2180,0,1091.1320447921753
ADMIN-UCSF-BS013,2018-03-18 16:40:46+00:00,2018-04-16 20:30:00+00:00,,Conjunction_4,23,0,1,1010,0,916.6760444641113
ADMIN-UCSF-BS013,2018-03-18 16:40:46+00:00,2018-04-16 20:30:00+00:00,,Feature_12,23,0,1,900,0,626.2179613113403
ADMIN-UCSF-BS013,2018-03-18 16:40:46+00:00,2018-04-16 20:30:00+00:00,,Feature_4,23,1,1,680,0,639.8600339889526
ADMIN-UCSF-BS013,2018-03-18 16:40:46+00:00,2018-04-16 20:30:00+00:00,,Conjunction_12,24,1,1,2220,0,927.7640581130981
ADMIN-UCSF-BS013,2018-03-18 16:40:46+00:00,2018-04-16 20:30:00+00:00,,Conjunction_4,24,0,1,1000,0,796.4240312576294
ADMIN-UCSF-BS013,2018-03-18 16:40:46+00:00,2018-04-16 20:30:00+00:00,,Feature_12,24,0,1,890,0,706.9809436798096
ADMIN-UCSF-BS013,2018-03-18 16:40:46+00:00,2018-04-16 20:30:00+00:00,,Feature_4,24,1,1,670,0,623.9129304885864
ADMIN-UCSF-BS010,2018-03-23 20:16:10+00:00,2018-04-16 20:30:00+00:00,,Conjunction_12,0,0,0,1000,0,832.3290348052979
ADMIN-UCSF-BS010,2018-03-23 20:16:10+00:00,2018-04-16 20:30:00+00:00,,Conjunction_4,0,1,1,1000,0,742.98095703125
ADMIN-UCSF-BS010,2018-03-23 20:16:10+00:00,2018-04-16 20:30:00+00:00,,Feature_12,0,0,1,1000,0,590.1730060577393
ADMIN-UCSF-BS010,2018-03-23 20:16:10+00:00,2018-04-16 20:30:00+00:00,,Feature_4,0,0,1,1000,0,578.1110525131226
ADMIN-UCSF-BS010,2018-03-23 20:16:10+00:00,2018-04-16 20:30:00+00:00,,Conjunction_12,1,0,0,1040,1,N/A
ADMIN-UCSF-BS010,2018-03-23 20:16:10+00:00,2018-04-16 20:30:00+00:00,,Conjunction_4,1,1,1,990,0,782.7368974685669
ADMIN-UCSF-BS010,2018-03-23 20:16:10+00:00,2018-04-16 20:30:00+00:00,,Feature_12,1,0,1,990,0,571.9249248504639
ADMIN-UCSF-BS010,2018-03-23 20:16:10+00:00,2018-04-16 20:30:00+00:00,,Feature_4,1,0,0,990,0,600.7850170135498
ADMIN-UCSF-BS010,2018-03-23 20:16:10+00:00,2018-04-16 20:30:00+00:00,,Conjunction_12,2,0,1,1080,0,707.2970867156982
ADMIN-UCSF-BS010,2018-03-23 20:16:10+00:00,2018-04-16 20:30:00+00:00,,Conjunction_4,2,1,1,980,0,629.4890642166138
ADMIN-UCSF-BS010,2018-03-23 20:16:10+00:00,2018-04-16 20:30:00+00:00,,Feature_12,2,1,1,980,0,595.2670574188232
ADMIN-UCSF-BS010,2018-03-23 20:16:10+00:00,2018-04-16 20:30:00+00:00,,Feature_4,2,1,1,1030,0,618.9380884170532
ADMIN-UCSF-BS010,2018-03-23 20:16:10+00:00,2018-04-16 20:30:00+00:00,,Conjunction_12,3,1,1,1070,0,810.7719421386719
ADMIN-UCSF-BS010,2018-03-23 20:16:10+00:00,2018-04-16 20:30:00+00:00,,Conjunction_4,3,0,1,960,0,748.7169504165649
ADMIN-UCSF-BS010,2018-03-23 20:16:10+00:00,2018-04-16 20:30:00+00:00,,Feature_12,3,1,1,960,0,636.8759870529175
ADMIN-UCSF-BS010,2018-03-23 20:16:10+00:00,2018-04-16 20:30:00+00:00,,Feature_4,3,1,1,1020,0,518.8299417495728
ADMIN-UCSF-BS010,2018-03-23 20:16:10+00:00,2018-04-16 20:30:00+00:00,,Conjunction_12,4,1,1,1060,0,588.5789394378662
ADMIN-UCSF-BS010,2018-03-23 20:16:10+00:00,2018-04-16 20:30:00+00:00,,Conjunction_4,4,1,1,920,0,589.1870260238647
ADMIN-UCSF-BS010,2018-03-23 20:16:10+00:00,2018-04-16 20:30:00+00:00,,Feature_12,4,0,1,920,0,585.4910612106323
ADMIN-UCSF-BS010,2018-03-23 20:16:10+00:00,2018-04-16 20:30:00+00:00,,Feature_4,4,0,1,1010,0,610.3919744491577
ADMIN-UCSF-BS010,2018-03-23 20:16:10+00:00,2018-04-16 20:30:00+00:00,,Conjunction_12,5,1,1,1040,0,793.1519746780396
ADMIN-UCSF-BS010,2018-03-23 20:16:10+00:00,2018-04-16 20:30:00+00:00,,Conjunction_4,5,1,1,840,0,499.54402446746826
ADMIN-UCSF-BS010,2018-03-23 20:16:10+00:00,2018-04-16 20:30:00+00:00,,Feature_12,5,1,1,840,0,457.0969343185425
ADMIN-UCSF-BS010,2018-03-23 20:16:10+00:00,2018-04-16 20:30:00+00:00,,Feature_4,5,1,1,990,0,574.8339891433716
ADMIN-UCSF-BS010,2018-03-23 20:16:10+00:00,2018-04-16 20:30:00+00:00,,Conjunction_12,6,1,1,1000,0,658.0259799957275
ADMIN-UCSF-BS010,2018-03-23 20:16:10+00:00,2018-04-16 20:30:00+00:00,,Conjunction_4,6,0,1,680,0,623.2309341430664
ADMIN-UCSF-BS010,2018-03-23 20:16:10+00:00,2018-04-16 20:30:00+00:00,,Feature_12,6,0,1,680,0,533.8780879974365
ADMIN-UCSF-BS010,2018-03-23 20:16:10+00:00,2018-04-16 20:30:00+00:00,,Feature_4,6,1,1,950,0,512.923002243042
ADMIN-UCSF-BS010,2018-03-23 20:16:10+00:00,2018-04-16 20:30:00+00:00,,Conjunction_12,7,1,0,920,1,964.9029970169067
ADMIN-UCSF-BS010,2018-03-23 20:16:10+00:00,2018-04-16 20:30:00+00:00,,Conjunction_4,7,0,0,360,1,831.199049949646
ADMIN-UCSF-BS010,2018-03-23 20:16:10+00:00,2018-04-16 20:30:00+00:00,,Feature_12,7,0,0,360,1,434.01193618774414
ADMIN-UCSF-BS010,2018-03-23 20:16:10+00:00,2018-04-16 20:30:00+00:00,,Feature_4,7,0,1,870,0,495.8890676498413
ADMIN-UCSF-BS010,2018-03-23 20:16:10+00:00,2018-04-16 20:30:00+00:00,,Conjunction_12,8,0,0,960,1,980.9110164642334
ADMIN-UCSF-BS010,2018-03-23 20:16:10+00:00,2018-04-16 20:30:00+00:00,,Conjunction_4,8,1,0,400,1,700.4879713058472
ADMIN-UCSF-BS010,2018-03-23 20:16:10+00:00,2018-04-16 20:30:00+00:00,,Feature_12,8,0,0,400,1,810.9719753265381
ADMIN-UCSF-BS010,2018-03-23 20:16:10+00:00,2018-04-16 20:30:00+00:00,,Feature_4,8,1,1,710,0,452.09288597106934
ADMIN-UCSF-BS010,2018-03-23 20:16:10+00:00,2018-04-16 20:30:00+00:00,,Conjunction_12,9,0,0,1000,1,1134.6290111541748
ADMIN-UCSF-BS010,2018-03-23 20:16:10+00:00,2018-04-16 20:30:00+00:00,,Conjunction_4,9,1,0,440,1,559.689998626709
ADMIN-UCSF-BS010,2018-03-23 20:16:10+00:00,2018-04-16 20:30:00+00:00,,Feature_12,9,1,0,440,1,562.8329515457153
ADMIN-UCSF-BS010,2018-03-23 20:16:10+00:00,2018-04-16 20:30:00+00:00,,Feature_4,9,0,0,390,1,524.5239734649658
ADMIN-UCSF-BS010,2018-03-23 20:16:10+00:00,2018-04-16 20:30:00+00:00,,Conjunction_12,10,1,1,1080,0,1070.2929496765137
ADMIN-UCSF-BS010,2018-03-23 20:16:10+00:00,2018-04-16 20:30:00+00:00,,Conjunction_4,10,1,0,520,1,545.8420515060425
ADMIN-UCSF-BS010,2018-03-23 20:16:10+00:00,2018-04-16 20:30:00+00:00,,Feature_12,10,0,0,520,1,567.8369998931885
ADMIN-UCSF-BS010,2018-03-23 20:16:10+00:00,2018-04-16 20:30:00+00:00,,Feature_4,10,1,0,430,1,477.4409532546997
ADMIN-UCSF-BS010,2018-03-23 20:16:10+00:00,2018-04-16 20:30:00+00:00,,Conjunction_12,11,0,1,1070,0,585.5089426040649
ADMIN-UCSF-BS010,2018-03-23 20:16:10+00:00,2018-04-16 20:30:00+00:00,,Conjunction_4,11,1,1,680,0,587.9089832305908
ADMIN-UCSF-BS010,2018-03-23 20:16:10+00:00,2018-04-16 20:30:00+00:00,,Feature_12,11,0,0,680,0,402.4620056152344
ADMIN-UCSF-BS010,2018-03-23 20:16:10+00:00,2018-04-16 20:30:00+00:00,,Feature_4,11,0,0,470,1,473.6199378967285
ADMIN-UCSF-BS010,2018-03-23 20:16:10+00:00,2018-04-16 20:30:00+00:00,,Conjunction_12,12,1,1,1060,0,929.9130439758301
ADMIN-UCSF-BS010,2018-03-23 20:16:10+00:00,2018-04-16 20:30:00+00:00,,Conjunction_4,12,1,0,670,1,867.5410747528076
ADMIN-UCSF-BS010,2018-03-23 20:16:10+00:00,2018-04-16 20:30:00+00:00,,Feature_12,12,0,1,1000,0,627.6730298995972
ADMIN-UCSF-BS010,2018-03-23 20:16:10+00:00,2018-04-16 20:30:00+00:00,,Feature_4,12,1,1,550,0,384.0590715408325
ADMIN-UCSF-BS010,2018-03-23 20:16:10+00:00,2018-04-16 20:30:00+00:00,,Conjunction_12,13,0,1,1040,0,763.3039951324463
ADMIN-UCSF-BS010,2018-03-23 20:16:10+00:00,2018-04-16 20:30:00+00:00,,Conjunction_4,13,0,0,710,1,823.8929510116577
ADMIN-UCSF-BS010,2018-03-23 20:16:10+00:00,2018-04-16 20:30:00+00:00,,Feature_12,13,0,1,990,0,510.85495948791504
ADMIN-UCSF-BS010,2018-03-23 20:16:10+00:00,2018-04-16 20:30:00+00:00,,Feature_4,13,1,1,540,0,449.0259885787964
ADMIN-UCSF-BS010,2018-03-23 20:16:10+00:00,2018-04-16 20:30:00+00:00,,Conjunction_12,14,0,1,1000,0,890.468955039978
ADMIN-UCSF-BS010,2018-03-23 20:16:10+00:00,2018-04-16 20:30:00+00:00,,Conjunction_4,14,0,0,750,1,886.3860368728638
ADMIN-UCSF-BS010,2018-03-23 20:16:10+00:00,2018-04-16 20:30:00+00:00,,Feature_12,14,1,1,980,0,793.0939197540283
ADMIN-UCSF-BS010,2018-03-23 20:16:10+00:00,2018-04-16 20:30:00+00:00,,Feature_4,14,1,1,530,0,442.1039819717407
ADMIN-UCSF-BS010,2018-03-23 20:16:10+00:00,2018-04-16 20:30:00+00:00,,Conjunction_12,15,1,1,920,0,629.4519901275635
ADMIN-UCSF-BS010,2018-03-23 20:16:10+00:00,2018-04-16 20:30:00+00:00,,Conjunction_4,15,1,1,830,0,827.8120756149292
ADMIN-UCSF-BS010,2018-03-23 20:16:10+00:00,2018-04-16 20:30:00+00:00,,Feature_12,15,1,1,960,0,650.9799957275391
ADMIN-UCSF-BS010,2018-03-23 20:16:10+00:00,2018-04-16 20:30:00+00:00,,Feature_4,15,0,0,510,1,533.7399244308472
ADMIN-UCSF-BS010,2018-03-23 20:16:10+00:00,2018-04-16 20:30:00+00:00,,Conjunction_12,16,0,0,760,1,1042.8889989852905
ADMIN-UCSF-BS010,2018-03-23 20:16:10+00:00,2018-04-16 20:30:00+00:00,,Conjunction_4,16,0,1,820,0,709.8169326782227
ADMIN-UCSF-BS010,2018-03-23 20:16:10+00:00,2018-04-16 20:30:00+00:00,,Feature_12,16,1,1,920,0,670.5529689788818
ADMIN-UCSF-BS010,2018-03-23 20:16:10+00:00,2018-04-16 20:30:00+00:00,,Feature_4,16,1,1,550,0,425.4159927368164
ADMIN-UCSF-BS010,2018-03-23 20:16:10+00:00,2018-04-16 20:30:00+00:00,,Conjunction_12,17,1,0,800,1,1228.0479669570923
ADMIN-UCSF-BS010,2018-03-23 20:16:10+00:00,2018-04-16 20:30:00+00:00,,Conjunction_4,17,0,1,810,0,761.2019777297974
ADMIN-UCSF-BS010,2018-03-23 20:16:10+00:00,2018-04-16 20:30:00+00:00,,Feature_12,17,0,1,840,0,514.3119096755981
ADMIN-UCSF-BS010,2018-03-23 20:16:10+00:00,2018-04-16 20:30:00+00:00,,Feature_4,17,0,1,540,0,416.63992404937744
ADMIN-UCSF-BS010,2018-03-23 20:16:10+00:00,2018-04-16 20:30:00+00:00,,Conjunction_12,18,1,0,840,1,1006.6499710083008
ADMIN-UCSF-BS010,2018-03-23 20:16:10+00:00,2018-04-16 20:30:00+00:00,,Conjunction_4,18,0,0,790,1,836.7290496826172
ADMIN-UCSF-BS010,2018-03-23 20:16:10+00:00,2018-04-16 20:30:00+00:00,,Feature_12,18,1,1,680,0,607.714056968689
ADMIN-UCSF-BS010,2018-03-23 20:16:10+00:00,2018-04-16 20:30:00+00:00,,Feature_4,18,0,0,530,0,401.8470048904419
ADMIN-UCSF-BS010,2018-03-23 20:16:10+00:00,2018-04-16 20:30:00+00:00,,Conjunction_12,19,1,1,920,0,710.4181051254272
ADMIN-UCSF-BS010,2018-03-23 20:16:10+00:00,2018-04-16 20:30:00+00:00,,Conjunction_4,19,0,0,830,1,952.051043510437
ADMIN-UCSF-BS010,2018-03-23 20:16:10+00:00,2018-04-16 20:30:00+00:00,,Feature_12,19,1,0,360,1,627.9329061508179
ADMIN-UCSF-BS010,2018-03-23 20:16:10+00:00,2018-04-16 20:30:00+00:00,,Feature_4,19,1,1,570,0,491.7919635772705
ADMIN-UCSF-BS010,2018-03-23 20:16:10+00:00,2018-04-16 20:30:00+00:00,,Conjunction_12,20,1,0,910,0,824.1780996322632
ADMIN-UCSF-BS010,2018-03-23 20:16:10+00:00,2018-04-16 20:30:00+00:00,,Conjunction_4,20,1,1,870,0,703.4848928451538
ADMIN-UCSF-BS010,2018-03-23 20:16:10+00:00,2018-04-16 20:30:00+00:00,,Feature_12,20,1,0,400,1,673.8890409469604
ADMIN-UCSF-BS010,2018-03-23 20:16:10+00:00,2018-04-16 20:30:00+00:00,,Feature_4,20,1,1,560,0,545.9860563278198
ADMIN-UCSF-BS010,2018-03-23 20:16:10+00:00,2018-04-16 20:30:00+00:00,,Conjunction_12,21,1,1,950,0,610.2050542831421
ADMIN-UCSF-BS010,2018-03-23 20:16:10+00:00,2018-04-16 20:30:00+00:00,,Conjunction_4,21,0,1,860,0,609.7729206085205
ADMIN-UCSF-BS010,2018-03-23 20:16:10+00:00,2018-04-16 20:30:00+00:00,,Feature_12,21,0,0,440,1,460.050106048584
ADMIN-UCSF-BS010,2018-03-23 20:16:10+00:00,2018-04-16 20:30:00+00:00,,Feature_4,21,0,1,550,0,539.6029949188232
ADMIN-UCSF-BS010,2018-03-23 20:16:10+00:00,2018-04-16 20:30:00+00:00,,Conjunction_12,22,0,1,940,0,887.8999948501587
ADMIN-UCSF-BS010,2018-03-23 20:16:10+00:00,2018-04-16 20:30:00+00:00,,Conjunction_4,22,0,0,850,1,857.5459718704224
ADMIN-UCSF-BS010,2018-03-23 20:16:10+00:00,2018-04-16 20:30:00+00:00,,Feature_12,22,1,0,520,1,551.3819456100464
ADMIN-UCSF-BS010,2018-03-23 20:16:10+00:00,2018-04-16 20:30:00+00:00,,Feature_4,22,0,0,530,0,492.33198165893555
ADMIN-UCSF-BS010,2018-03-23 20:16:10+00:00,2018-04-16 20:30:00+00:00,,Conjunction_12,23,0,0,930,1,1014.1069889068604
ADMIN-UCSF-BS010,2018-03-23 20:16:10+00:00,2018-04-16 20:30:00+00:00,,Conjunction_4,23,0,0,890,1,1066.4581060409546
ADMIN-UCSF-BS010,2018-03-23 20:16:10+00:00,2018-04-16 20:30:00+00:00,,Feature_12,23,1,1,680,0,518.4999704360962
ADMIN-UCSF-BS010,2018-03-23 20:16:10+00:00,2018-04-16 20:30:00+00:00,,Feature_4,23,0,0,570,0,439.7639036178589
ADMIN-UCSF-BS010,2018-03-23 20:16:10+00:00,2018-04-16 20:30:00+00:00,,Conjunction_12,24,0,0,970,1,1340.9769535064697
ADMIN-UCSF-BS010,2018-03-23 20:16:10+00:00,2018-04-16 20:30:00+00:00,,Conjunction_4,24,1,0,930,1,973.6219644546509
ADMIN-UCSF-BS010,2018-03-23 20:16:10+00:00,2018-04-16 20:30:00+00:00,,Feature_12,24,1,1,670,0,493.1069612503052
ADMIN-UCSF-BS010,2018-03-23 20:16:10+00:00,2018-04-16 20:30:00+00:00,,Feature_4,24,1,0,610,1,886.9329690933228
